#Measurement, Acceleration X, Acceleration Y, Acceleration Z, Rotation Alpha, Rotation Beta, Rotation Gamma, Orientation Alpha, Orientation Beta, Orientation Gamma 
1, 0.2987658977508545, 3.3803186416625977, -1.6764113903045654, -0.81903076171875, -0.082275390625, 0.039947509765625, 99.1167603495175, -103.39205526737369, -60.45870370696626 
2, 0.03314375877380371, 0.6815423965454102, -0.1548910140991211, -0.66522216796875, 0.00531005859375, 0.58148193359375, 113.8686172762497, -109.44396969793986, -46.74362657408081 
3, 0.31934094429016113, 1.304433822631836, -0.9549126625061035, -0.550933837890625, -0.014984130859375, 0.72247314453125, 114.98546044419871, -115.27112219093756, -45.729105309354985 
4, 0.05321669578552246, 0.03112316131591797, -1.1557018756866455, -0.747467041015625, -0.153839111328125, 0.608184814453125, 114.77370679883452, -124.32989895056814, -45.91997599136216 
5, -0.3153691291809082, -0.5004639625549316, -0.8009095191955566, -0.856414794921875, -0.1463623046875, 0.67974853515625, 116.13611110812577, -130.2245912040937, -45.44890965112075 
6, -0.5582971572875977, -0.730104923248291, -1.0325627326965332, -0.664154052734375, -0.117523193359375, 0.7801513671875, 116.85273496444312, -136.32979663299594, -45.60838585766332 
7, -0.9114775657653809, -1.7228975296020508, -2.450881004333496, -0.28924560546875, -0.027801513671875, 0.341156005859375, 116.48628219376518, -142.02981733877272, -46.4561603415243 
8, -2.0790610313415527, -3.6437087059020996, -2.775587558746338, 0.48406982421875, 0.143096923828125, -0.51654052734375, 116.73596391269554, -142.392862504258, -46.19144077000649 
9, -0.5846409797668457, -0.6840176582336426, -1.0847392082214355, 0.803436279296875, 0.17620849609375, -0.941650390625, 117.34185723477573, -135.88132340866352, -44.82409898305766 
10, 0.16901159286499023, 0.721348762512207, -0.964787483215332, 0.666717529296875, 0.0245361328125, -0.882904052734375, 118.5384870258428, -129.05953360806066, -42.85816606666472 
11, 0.30994701385498047, 1.3690786361694336, -0.3081071376800537, 0.5972900390625, -0.275604248046875, -0.84124755859375, 120.6938201307243, -123.3184924087223, -41.282679188158085 
12, 0.5578536987304688, 1.648843765258789, -0.3787839412689209, 0.75323486328125, -0.070526123046875, -0.861541748046875, 123.41026303048213, -117.44160568150551, -40.493167629657286 
13, 0.6600635051727295, 2.2251033782958984, 0.2868349552154541, 0.64215087890625, 0.0672607421875, -0.594512939453125, 125.92024375957617, -111.44196221132233, -38.513134201811425 
14, 0.012513995170593262, 2.52182674407959, 0.532551646232605, 0.62078857421875, 0.098236083984375, -0.23028564453125, 124.48440339858404, -105.87154948732397, -39.60172761597569 
15, 0.1516282558441162, 2.6075353622436523, 0.03548693656921387, 0.265106201171875, 0.088623046875, 0.14996337890625, 117.3608899994687, -102.83201310016035, -45.37740146622386 
16, 0.9801129102706909, 1.1631288528442383, 2.213632106781006, 0.092071533203125, -0.18267822265625, 0.183074951171875, 111.66188787068063, -102.3156468041557, -50.30243594148199 
17, -1.0694591999053955, 0.8029384613037109, 2.1841187477111816, -0.57977294921875, 0.22747802734375, 0.51953125, 108.65687374812858, -104.54854694203222, -53.76448244958001 
18, 0.9193799495697021, 1.711099624633789, 0.2305617332458496, -0.21875, -0.05450439453125, 0.13714599609375, 110.93907085340186, -107.49069952371681, -51.497961673511156 
19, 0.4402163028717041, 1.3588132858276367, -0.8857288360595703, -0.84466552734375, -0.040618896484375, 0.3486328125, 116.17252723768107, -110.91760987874837, -45.33916440004991 
20, 1.257981538772583, -0.3247041702270508, -0.24407243728637695, -0.6246337890625, 0.15484619140625, 0.52166748046875, 119.22326166572287, -116.57841310453848, -41.3580493938761 
21, -0.9700701236724854, 0.5316758155822754, -0.6638510227203369, -0.517822265625, 0.183685302734375, 0.415924072265625, 119.0344795374837, -121.61728512484368, -40.662341339701186 
22, -0.10831570625305176, 0.18454217910766602, -1.0060534477233887, -0.5947265625, -0.12286376953125, 0.454376220703125, 118.89662184286338, -126.47032503611497, -40.68020229947565 
23, -0.28664541244506836, 0.38917016983032227, -0.938899040222168, -0.59259033203125, -0.13995361328125, 0.539825439453125, 119.16285395205055, -130.80261609928328, -41.22596092643304 
24, -0.8121380805969238, -1.2236313819885254, -1.0448884963989258, -0.574432373046875, -0.064117431640625, 0.51312255859375, 119.16285395205055, -130.80261609928328, -41.22596092643304 
25, -1.824038028717041, -2.7734642028808594, -2.663484573364258, -0.136505126953125, 0.04376220703125, 0.23541259765625, 118.81969136401624, -139.25358539174547, -42.76267784928879 
26, -1.7662525177001953, -3.3665671348571777, -2.198493480682373, 0.52679443359375, 0.15911865234375, -0.4674072265625, 118.51413953631452, -138.55253812506672, -42.56165698063966 
27, -0.4607963562011719, -0.8505582809448242, -1.3584709167480469, 0.68914794921875, 0.158050537109375, -0.82415771484375, 118.8887729472667, -133.34705532534812, -41.33343380389069 
28, -0.1735095977783203, 0.5393643379211426, -0.6164412498474121, 0.62078857421875, -0.173065185546875, -0.850860595703125, 120.41925734232842, -127.39687750153121, -39.387123747338485 
29, -0.5357136726379395, 1.0067873001098633, -0.17115426063537598, 0.668853759765625, -0.337554931640625, -0.878631591796875, 123.55526353534916, -120.65114948609308, -38.241892668283434 
30, 0.4697291851043701, 2.282048225402832, -0.13103652000427246, 0.832275390625, -0.104705810546875, -0.776092529296875, 126.55483059435781, -114.21610063543208, -37.36603684564686 
31, 1.3032381534576416, 2.7566709518432617, 0.4292871952056885, 0.7767333984375, -0.2318115234375, -0.44818115234375, 127.96683513220844, -108.62848453524069, -36.502968796418 
32, 0.20673024654388428, 2.3427467346191406, 0.3473759889602661, 0.46697998046875, 0.23602294921875, -0.001708984375, 124.02019762123626, -103.88036948310464, -41.021802146153526 
33, 1.706569790840149, 0.5990257263183594, 0.7306333780288696, 0.14654541015625, 0.32574462890625, 0.06024169921875, 119.42511025953512, -102.92382823311834, -44.49061434253897 
34, 1.4377487897872925, 0.8375635147094727, 1.2727516889572144, 0.04827880859375, 0.105712890625, 0.30377197265625, 114.15907648072405, -102.80630845359087, -48.23557705206812 
35, -0.28363823890686035, 0.3050413131713867, 1.0768718719482422, -0.339447021484375, 0.038421630859375, 0.366790771484375, 109.90882782801667, -104.71295479239534, -51.731830058982496 
36, 1.8165385723114014, 2.4531021118164062, -1.5165733098983765, -0.266815185546875, -0.1378173828125, 0.21832275390625, 111.04273232470614, -107.01114509147004, -51.03707113064343 
37, -0.6017773151397705, 1.955489158630371, 0.2175455093383789, -0.81903076171875, 0.09716796875, 0.53875732421875, 118.3496685960233, -110.55040191649194, -43.07855415829213 
38, -1.1501762866973877, 0.48015499114990234, 0.5982708930969238, -0.730377197265625, 0.207183837890625, 0.582550048828125, 120.01355874186982, -116.82831470501199, -40.25579352838089 
39, -0.8421773910522461, -0.3333911895751953, -0.6142721176147461, -0.683380126953125, 0.059783935546875, 0.6348876953125, 119.38664867038054, -124.00079042578257, -39.820806977137075 
40, -0.8575098514556885, -0.7819995880126953, -1.1448369026184082, -0.82330322265625, -0.1207275390625, 0.587890625, 119.01461260220988, -129.49742983122027, -40.71466950883894 
41, -1.3264856338500977, -1.5114006996154785, -1.5882568359375, -0.54986572265625, -0.07373046875, 0.527008056640625, 119.73576465386098, -135.7005301437088, -41.26712092421452 
42, -2.0606884956359863, -2.7935400009155273, -2.9002346992492676, -0.023284912109375, 0.100372314453125, 0.19696044921875, 119.27873092667133, -138.97119649320825, -41.98972002647923 
43, -2.2071027755737305, -3.5286478996276855, -2.6169509887695312, 0.56097412109375, 0.119598388671875, -0.468475341796875, 118.63991624878818, -137.91240398532594, -41.809745063490716 
44, -0.6384258270263672, -1.363152027130127, -1.10795259475708, 0.726531982421875, 0.187957763671875, -0.759002685546875, 119.01861274248587, -132.79240679880988, -40.71571066878685 
45, 0.2096848487854004, 0.7211651802062988, -0.2866806983947754, 0.653900146484375, -0.269195556640625, -0.78570556640625, 120.65328390524424, -126.05986997018404, -38.84878954976029 
46, -0.04749464988708496, 1.2185945510864258, 0.23482847213745117, 0.767120361328125, -0.22113037109375, -0.823089599609375, 122.79165325740539, -120.0911684968892, -38.564528833379754 
47, 0.4111778736114502, 1.7393226623535156, 0.38341188430786133, 0.7041015625, -0.0438232421875, -0.668212890625, 124.8315108921786, -113.91080489652883, -37.91475597679852 
48, 0.4867135286331177, 2.796926498413086, 0.14417552947998047, 0.594085693359375, -0.19549560546875, -0.3050537109375, 124.618393829653, -107.9655494212069, -38.54975796824173 
49, -1.2426459789276123, 1.1474990844726562, -0.035980939865112305, 0.352691650390625, -0.01605224609375, 0.052764892578125, 121.94677854202045, -104.63970824207544, -41.793988383605935 
50, 0.6745150089263916, 1.8834247589111328, 0.6035710573196411, 0.23626708984375, 0.06085205078125, -0.00811767578125, 117.85225920032751, -102.5166983304639, -45.085267540911524 
51, 1.2135388851165771, 1.1922760009765625, 0.8973085880279541, -0.03289794921875, 0.010650634765625, 0.19696044921875, 112.2120158453128, -102.0718733800043, -50.231914108849175 
52, 1.4091814756393433, -0.2995443344116211, 1.4326616525650024, -0.24652099609375, 0.006378173828125, 0.2503662109375, 109.7051243604308, -104.33481794881958, -52.56771603604537 
53, 0.6235084533691406, 3.3224077224731445, 0.5327854156494141, -0.34051513671875, 0.24456787109375, 0.375335693359375, 109.3565365340901, -106.19089750009248, -52.52342290125681 
54, -0.38088488578796387, 0.8562421798706055, 0.21960854530334473, -0.8724365234375, 0.042694091796875, 0.383880615234375, 114.9517863917152, -110.61512706487309, -45.60520005976406 
55, -0.58902907371521, -0.9499654769897461, -0.23167085647583008, -0.877777099609375, 0.293701171875, 0.539825439453125, 116.9273517290477, -116.19843341057722, -42.48255578720997 
56, -0.26875782012939453, 0.028736114501953125, -0.4564039707183838, -0.700469970703125, 0.1826171875, 0.51312255859375, 116.78240980399802, -121.2850968735349, -41.54593344484588 
57, -0.12118887901306152, -0.6135983467102051, -0.5736865997314453, -0.587249755859375, 0.06939697265625, 0.5323486328125, 116.74038742755485, -126.01262845483683, -40.79219608358838 
58, -0.1646571159362793, -1.0057344436645508, -0.3281536102294922, -0.587249755859375, -0.0523681640625, 0.586822509765625, 116.4503068898493, -130.6445788831172, -40.729212502422115 
59, -1.3725652694702148, -1.4970645904541016, -0.9601702690124512, -0.486846923828125, -0.1292724609375, 0.44049072265625, 116.12336547668858, -135.83262904277808, -41.337905942784076 
60, -1.2328853607177734, -2.1162643432617188, -0.9531211853027344, -0.193115234375, -0.111114501953125, 0.32086181640625, 115.8804896606724, -139.27929711266754, -42.33911489810664 
61, -1.768458366394043, -1.916879653930664, -2.3606581687927246, 0.284332275390625, 0.100372314453125, -0.21746826171875, 115.3736804885333, -140.15290003122595, -42.98711701783019 
62, -0.7267546653747559, -1.845313549041748, -1.5182442665100098, 0.589813232421875, 0.151641845703125, -0.719482421875, 115.49295594950486, -137.06851457634846, -42.35931686465065 
63, -0.5416676998138428, -0.022801876068115234, -1.0574650764465332, 0.4990234375, -0.06732177734375, -0.803863525390625, 117.14143840998808, -130.89698987109688, -40.20930917354534 
64, -0.3291802406311035, 0.1724543571472168, -0.1271510124206543, 0.5545654296875, -0.3258056640625, -0.831634521484375, 119.69586144431904, -125.79204692368953, -38.87214343442712 
65, 0.4966604709625244, 1.4490413665771484, 0.2849857807159424, 0.84722900390625, -0.1634521484375, -0.846588134765625, 122.65246601796015, -119.80488168110229, -38.29758133089943 
66, 0.31114912033081055, 2.9110546112060547, 0.032972097396850586, 0.60797119140625, -0.08868408203125, -0.541107177734375, 124.65781821502651, -113.7932456600124, -37.24983127062579 
67, 0.3119579553604126, 1.5061111450195312, 0.5575029850006104, 0.4178466796875, -0.19976806640625, -0.18756103515625, 124.31260092553939, -109.9718237949937, -38.31071574595971 
68, 0.7302314043045044, 0.9762763977050781, 0.8158948421478271, 0.239471435546875, 0.054443359375, 0.020721435546875, 121.52747223455563, -107.83338923182393, -41.701837686284506 
69, 0.7275934219360352, 0.7934160232543945, 1.5947234630584717, 0.077117919921875, 0.14202880859375, 0.123260498046875, 118.2861178299659, -106.6586031176773, -43.98341329023441 
70, 0.2657245397567749, 1.5881538391113281, 0.894656777381897, -0.2315673828125, -0.040618896484375, 0.2503662109375, 115.39870243101421, -107.06337504663142, -46.00104916751324 
71, -0.4912545680999756, -0.766087532043457, 2.831425428390503, -0.40887451171875, 0.14202880859375, 0.388153076171875, 115.45238434037635, -109.83990447556339, -45.69065517408172 
72, 0.4289252758026123, 3.472386360168457, -2.064168691635132, -0.758148193359375, 0.16552734375, 0.341156005859375, 116.18852766697312, -112.42372360804693, -45.02582893780219 
73, 0.13374018669128418, -0.8400020599365234, 0.09848713874816895, -0.69085693359375, 0.380218505859375, 0.644500732421875, 120.51289267872006, -117.77713130678026, -40.49424170894461 
74, -0.775942325592041, 0.7440342903137207, -0.6844227313995361, -0.559478759765625, 0.313995361328125, 0.646636962890625, 119.75685701471579, -122.6912384262374, -39.69045667588384 
75, 0.7976093292236328, 0.26339149475097656, -0.3668479919433594, -0.514617919921875, 0.122802734375, 0.73101806640625, 117.44128135949171, -128.49749882907463, -39.98524266400537 
76, -0.6685166358947754, 0.7049307823181152, -1.1216001510620117, -0.68231201171875, -0.119659423828125, 0.70751953125, 115.54600812898256, -133.95338543014512, -40.798929141812096 
77, -1.5110535621643066, -1.320122241973877, -1.681300163269043, -0.60113525390625, -0.099365234375, 0.4468994140625, 114.99076400075556, -139.42831975979215, -41.84065562519716 
78, -2.825169086456299, -3.216674327850342, -2.6492037773132324, -0.021148681640625, 0.044830322265625, 0.03887939453125, 115.5434031794505, -142.67167820836892, -41.86689879698791 
79, -1.7909860610961914, -2.7218375205993652, -2.0302629470825195, 0.6229248046875, 0.072601318359375, -0.645782470703125, 115.58753635783225, -141.0849067183302, -41.74822158294782 
80, -0.35797977447509766, -0.37484121322631836, -1.1765499114990234, 0.5887451171875, 0.057647705078125, -0.865814208984375, 116.42141873065158, -135.817787166607, -40.66838855072778 
81, 0.08580231666564941, 1.4049668312072754, -0.5014939308166504, 0.59515380859375, -0.341827392578125, -0.897857666015625, 119.2023938846389, -129.04862791720745, -38.65222346101515 
82, -0.19944500923156738, 1.2253093719482422, 0.4012784957885742, 0.7425537109375, -0.318328857421875, -0.857269287109375, 122.33422806918327, -123.30707578897032, -37.925166879773506 
83, 0.1468348503112793, 1.883941650390625, 0.46429967880249023, 0.507568359375, -0.065185546875, -0.628692626953125, 125.68178009404797, -116.23445799271255, -36.94558134379946 
84, 0.2374039888381958, 2.0805673599243164, 0.30196499824523926, 0.44989013671875, -0.23394775390625, -0.325347900390625, 127.3001915177202, -111.93120323093729, -36.17049052818828 
85, 1.15313720703125, 1.0660219192504883, 1.2216885089874268, 0.19140625, -0.03955078125, 0.024993896484375, 126.33284940518567, -109.02073106963906, -38.691600294678366 
86, 1.1833735704421997, 0.5349550247192383, 1.430083990097046, 0.09527587890625, 0.166595458984375, -0.001708984375, 126.13209962118498, -107.41462450003253, -39.725161343231754 
87, 1.204110860824585, 0.5328636169433594, 1.5503087043762207, 0.121978759765625, 0.23175048828125, 0.2760009765625, 122.310946041292, -106.6541113100295, -43.065163339425524 
88, 0.4601137638092041, 0.6035928726196289, 1.7576112747192383, -0.0948486328125, -0.012847900390625, 0.253570556640625, 117.84681872908459, -107.48293707658735, -46.586763899768734 
89, 1.586383581161499, 1.8895654678344727, 1.7124578952789307, -0.939727783203125, 0.901458740234375, 0.46185302734375, 116.98277020689336, -109.21750410276418, -47.23134174330245 
90, 0.25183987617492676, 0.5606756210327148, 0.403886079788208, -0.7015380859375, 0.371673583984375, 0.8271484375, 121.316478954604, -115.46327311273731, -39.938425979113546 
91, -0.5407111644744873, 0.15956926345825195, -0.015839338302612305, -0.4879150390625, 0.147369384765625, 0.64556884765625, 120.92274037697818, -120.92057761355518, -38.526078108986844 
92, -0.09404754638671875, -0.11580324172973633, -0.7287664413452148, -0.623565673828125, 0.187957763671875, 0.630615234375, 119.41736235717896, -125.81313898412044, -39.22644620484059 
93, -0.5869202613830566, 0.3589663505554199, -1.2459979057312012, -0.559478759765625, -0.16558837890625, 0.6519775390625, 118.15671708021898, -130.62366017406816, -40.09837695210212 
94, -0.5796389579772949, -1.3767900466918945, -0.6227850914001465, -0.657745361328125, -0.155975341796875, 0.576141357421875, 117.58526486129388, -135.8734309097363, -41.26303872831749 
95, -1.1392064094543457, -1.3996696472167969, -1.1976981163024902, -0.488983154296875, -0.0694580078125, 0.41058349609375, 117.80330290137518, -140.6373035048519, -41.809892085300945 
96, -2.1005020141601562, -3.4143733978271484, -2.698808193206787, 0.042938232421875, 0.0416259765625, 0.05169677734375, 117.60920597631646, -143.23575897109964, -42.294364335369146 
97, -1.7847161293029785, -2.8426246643066406, -1.8198351860046387, 0.662445068359375, 0.1014404296875, -0.622283935546875, 117.37636207003334, -141.0986434078311, -42.360920830770624 
98, -0.0009908676147460938, -0.18992900848388672, -0.9268054962158203, 0.73828125, 0.183685302734375, -0.8092041015625, 117.70474938887509, -135.33896100452495, -41.4413851363928 
99, -0.26229381561279297, 0.9169902801513672, -0.31216907501220703, 0.56951904296875, -0.2147216796875, -0.856201171875, 119.1389000871263, -129.36632327255177, -39.45942045124924 
100, -0.0042874813079833984, 1.5014362335205078, 0.3942227363586426, 0.591949462890625, -0.376007080078125, -0.838043212890625, 121.79644683405432, -123.91579658421013, -38.65957263316606 
101, 0.28562164306640625, 1.4019184112548828, 0.3906290531158447, 0.613311767578125, -0.147430419921875, -0.719482421875, 125.5490966793396, -117.34882953584993, -37.70807027117192 
102, 0.34411191940307617, 2.421261787414551, 0.32622671127319336, 0.6912841796875, -0.249969482421875, -0.42041015625, 127.60659356368485, -112.41622888098503, -36.5196025149064 
103, -0.15131080150604248, 1.3859291076660156, 1.0735650062561035, 0.4990234375, -0.03314208984375, -0.1427001953125, 126.24785426921325, -108.53604097604446, -39.08194251583172 
104, 0.988263726234436, 1.915400505065918, 0.6140704154968262, 0.2298583984375, 0.183685302734375, 0.0367431640625, 120.79771846560185, -106.35173911952667, -44.13381883573972 
105, 0.3807361125946045, -0.5241031646728516, 2.483806610107422, -0.006195068359375, -0.134613037109375, 0.014312744140625, 117.76400025851132, -105.98471756018728, -46.01972719808458 
106, 1.7415616512298584, 0.30129146575927734, 1.9413764476776123, -0.08843994140625, 0.079010009765625, 0.206573486328125, 117.77184498572231, -106.55816779771637, -47.388024400925026 
107, -0.6294746398925781, 1.3426542282104492, 1.2471905946731567, -0.244384765625, 0.104644775390625, 0.35931396484375, 114.27231890961326, -107.18924960880055, -50.730165322824924 
108, 1.1060268878936768, 0.17559814453125, 1.5931396484375, -0.860687255859375, 0.2296142578125, 0.30377197265625, 116.77720624996705, -110.01135065823289, -47.94108549435324 
109, -0.3227567672729492, -0.6220941543579102, -0.029685258865356445, -0.602203369140625, 0.209320068359375, 0.648773193359375, 121.62351468687615, -114.8773630243161, -42.556934471375186 
110, 0.5839402675628662, 0.19706296920776367, 0.06440472602844238, -0.356536865234375, 0.053375244140625, 0.510986328125, 120.8635975681543, -119.62911717488787, -41.933202553814674 
111, 0.018434524536132812, 0.700477123260498, -0.5973539352416992, -0.6246337890625, 0.22747802734375, 0.552642822265625, 119.80283731869314, -124.16620669839415, -41.67393413487805 
112, -0.35039567947387695, -0.11513853073120117, -0.8073539733886719, -0.454803466796875, -0.01605224609375, 0.54302978515625, 119.4674419181405, -128.89539566601675, -40.92414380909729 
113, -0.6673378944396973, -0.8048405647277832, -1.1558432579040527, -0.448394775390625, -0.08868408203125, 0.49603271484375, 118.6984251862963, -132.96942570235947, -41.71856298752543 
114, -1.4561567306518555, -3.046478271484375, -2.228032112121582, -0.107666015625, -0.012847900390625, 0.24395751953125, 117.86918151506765, -137.41997130160476, -42.87845012246838 
115, -1.7342181205749512, -3.638352870941162, -1.5403122901916504, 0.506500244140625, 0.072601318359375, -0.30718994140625, 117.49201715941007, -137.1099201315594, -43.00263890687 
116, -0.8025054931640625, -1.7564334869384766, -1.0549774169921875, 0.80450439453125, 0.19970703125, -0.630828857421875, 116.86485845580181, -132.58714698645807, -42.755944663144234 
117, -0.37795305252075195, 0.29433727264404297, -0.6110420227050781, 0.574859619140625, 0.019195556640625, -0.786773681640625, 116.90149680471374, -126.71303932189232, -41.49198763758107 
118, -0.1468048095703125, 1.3125476837158203, -0.21530938148498535, 0.555633544921875, -0.4710693359375, -0.803863525390625, 118.92421218946991, -121.41798880670638, -39.754768789241375 
119, 0.369279146194458, 1.1895751953125, 0.631037712097168, 0.683807373046875, -0.389892578125, -0.82415771484375, 122.00594704757525, -116.02889417033677, -39.38811083567192 
120, 0.823354959487915, 2.058225631713867, 0.3108818531036377, 0.483001708984375, -0.055572509765625, -0.446044921875, 125.65019218049156, -109.63388716650259, -38.14047326235009 
121, -0.5171005725860596, 1.0846900939941406, 1.3631864786148071, 0.384735107421875, 0.130279541015625, -0.212127685546875, 126.16342795922046, -104.9268343844191, -38.649758749290044 
122, 0.86789870262146, 1.6880531311035156, -0.10629355907440186, 0.029052734375, 0.1099853515625, 0.0068359375, 121.74301468773635, -102.63069943263174, -42.88792525920854 
123, 0.075065016746521, 0.049407005310058594, 1.416129469871521, -0.00726318359375, -0.07373046875, 0.095489501953125, 118.61122935528209, -102.68246197850192, -45.250242124196724 
124, 2.2241859436035156, 1.5144596099853516, 0.4553028345108032, -0.19525146484375, 0.051239013671875, 0.2503662109375, 117.01877657395006, -103.16096256116879, -47.627271883643175 
125, -0.2473735809326172, 1.6398200988769531, 1.0104588270187378, -0.12261962890625, -0.31298828125, 0.268524169921875, 116.30606170530038, -105.6482661575103, -47.47639486956177 
126, 3.179356336593628, 1.895869255065918, -0.7446715831756592, -0.671630859375, 0.15484619140625, 0.345428466796875, 117.94627274187252, -109.27778720515279, -45.49103795479899 
127, -1.0082740783691406, -0.5874881744384766, -0.8621463775634766, -0.77203369140625, 0.164459228515625, 0.510986328125, 120.9722096125055, -114.59732210611918, -41.45844074903972 
128, -0.43311238288879395, -0.3925962448120117, -0.5510244369506836, -0.5733642578125, 0.324676513671875, 0.486419677734375, 121.92223199798285, -120.34929303117363, -39.36065707513365 
129, -1.6075074672698975, 0.0325927734375, -0.8991913795471191, -0.4793701171875, -0.002166748046875, 0.53875732421875, 120.77367752719384, -124.85340433955288, -39.15751826126226 
130, 0.07021617889404297, -0.804081916809082, -0.7019286155700684, -0.5562744140625, -0.1036376953125, 0.606048583984375, 119.62162735887699, -129.30039548009847, -40.46235598960223 
131, -1.0608139038085938, -1.1813936233520508, -0.9742703437805176, -0.39605712890625, -0.094024658203125, 0.627410888671875, 118.74195797573702, -134.58423328419212, -41.81444445836531 
132, -1.7567863464355469, -2.604524612426758, -2.2741007804870605, 0.055755615234375, -0.008575439453125, 0.227935791015625, 117.01476101150271, -138.36470891368785, -43.47706202370242 
133, -2.300461769104004, -3.4102635383605957, -2.1257686614990234, 0.558837890625, 0.096099853515625, -0.397979736328125, 115.90377722560072, -137.5473809318624, -44.044033855306196 
134, -0.8198070526123047, -1.3498711585998535, -0.8348712921142578, 0.7169189453125, 0.14630126953125, -0.729095458984375, 115.45496693039927, -132.79188398333497, -43.76024271157592 
135, -0.14133810997009277, 0.6060991287231445, -0.21696901321411133, 0.56524658203125, -0.053436279296875, -0.799591064453125, 116.31768035320592, -127.07010150275761, -42.322115240036936 
136, -0.07864165306091309, 1.5158805847167969, 0.283336877822876, 0.54388427734375, -0.350372314453125, -0.756866455078125, 118.18278068410507, -121.86914951028882, -41.34275819405684 
137, 0.10377788543701172, 1.0285511016845703, 0.3020741939544678, 0.47552490234375, -0.33221435546875, -0.731231689453125, 120.59469024319799, -116.84827694864124, -41.272481116190626 
138, 0.7688636779785156, 1.6928129196166992, 0.5127284526824951, 0.4691162109375, -0.201904296875, -0.428955078125, 123.46641087763747, -111.71383959503868, -40.6128295907826 
139, 0.798008918762207, 1.6507635116577148, -0.17272448539733887, 0.43280029296875, 0.258453369140625, -0.19610595703125, 123.23674044677865, -108.30315729944445, -41.9747582293295 
140, -0.3060058355331421, 1.5007762908935547, 0.35500574111938477, 0.26190185546875, 0.44537353515625, 0.084808349609375, 118.61116409057625, -107.17062330320333, -44.78353843049779 
141, 0.364712119102478, -0.4393291473388672, 1.5496560335159302, 0.068572998046875, 0.057647705078125, 0.220458984375, 114.18865155554984, -106.86359292907588, -46.75262949036028 
142, 0.4977452754974365, 0.6872797012329102, 1.3125306367874146, -0.33197021484375, -0.30657958984375, 0.20123291015625, 112.80640233736264, -107.50965405375779, -48.014075838889596 
143, 0.9100232124328613, -0.050350189208984375, 1.1041069030761719, -0.12261962890625, -0.247833251953125, 0.20550537109375, 113.0834345394978, -109.33461996060726, -48.989591907112 
144, 0.4013805389404297, 1.7283153533935547, 0.05936789512634277, -0.452667236328125, 0.177276611328125, 0.309112548828125, 113.05591762055806, -110.67820778761741, -49.90849523790935 
145, -0.21480226516723633, 1.113062858581543, 1.5838546752929688, -0.58831787109375, 0.259521484375, 0.362518310546875, 117.16210842437238, -114.04206006124632, -44.394908972374225 
146, -1.5823214054107666, -0.2120351791381836, 0.2688741683959961, -0.58404541015625, 0.205047607421875, 0.36785888671875, 118.48058955975286, -117.67152584331774, -41.87679929086724 
147, -0.46574926376342773, 0.012579917907714844, -0.33904027938842773, -0.5648193359375, 0.05230712890625, 0.46826171875, 119.37929376252784, -122.64610918165982, -39.73827148437269 
148, -0.3580620288848877, -0.4606924057006836, -0.7469291687011719, -0.34478759765625, -0.166656494140625, 0.510986328125, 118.79799656948086, -126.61962022417879, -39.780737167980455 
149, 1.3049168586730957, 0.3610725402832031, -0.7635498046875, -0.461212158203125, -0.228607177734375, 0.50457763671875, 117.07771864709893, -130.1750517065954, -42.61061769841468 
150, 0.5112886428833008, 0.07086038589477539, -0.6742029190063477, -0.53277587890625, -0.0523681640625, 0.486419677734375, 117.17352434917659, -134.38360444902236, -43.498174050933244 
151, -1.5439143180847168, -1.9189720153808594, -0.9428534507751465, -0.422760009765625, 0.017059326171875, 0.484283447265625, 117.51864370880668, -138.7084207450236, -43.359922651212514 
152, -2.1060824394226074, -2.9488654136657715, -2.6704087257385254, 0.1614990234375, 0.042694091796875, -0.098907470703125, 117.08958111311009, -141.15552364407438, -43.635581619632084 
153, -1.4031157493591309, -2.6730165481567383, -1.5707240104675293, 0.627197265625, 0.06085205078125, -0.65966796875, 116.8872314415834, -139.19256758570603, -43.49082683759749 
154, -0.15813922882080078, -0.5349483489990234, -0.923774242401123, 0.649627685546875, 0.16766357421875, -0.8690185546875, 117.89519240065871, -132.5785266736315, -41.93539098988243 
155, -0.4459364414215088, 0.6703877449035645, -0.2865018844604492, 0.656036376953125, -0.2061767578125, -0.831634521484375, 120.01502776927806, -126.68427191207275, -39.74547969379736 
156, 0.03690910339355469, 2.2548608779907227, 0.13443207740783691, 0.771392822265625, -0.3258056640625, -0.816680908203125, 121.8559289290054, -120.65006426890194, -39.54865422953341 
157, 0.6081624031066895, 2.5512657165527344, 0.49306702613830566, 0.48406982421875, -0.125, -0.564605712890625, 123.95188614758408, -114.91318022439306, -39.35846559795904 
158, 0.6478636264801025, 2.3087291717529297, 0.5043654441833496, 0.427459716796875, -0.243560791015625, -0.30078125, 124.42429422545568, -110.29526706399335, -40.20730290466706 
159, 0.3575770854949951, 0.08316612243652344, 0.8524296283721924, 0.344146728515625, 0.003173828125, -0.137359619140625, 123.49436910323155, -107.80660659235652, -42.41388326793281 
160, -0.3191438913345337, 0.37619686126708984, 1.0884592533111572, 0.457366943359375, 0.504119873046875, 0.136077880859375, 120.4497199323118, -105.98631725593116, -45.13809075543089 
161, 0.6901810169219971, 1.4084720611572266, 1.152284026145935, 0.2042236328125, 0.324676513671875, 0.04742431640625, 114.04929878697256, -104.1508431770112, -49.38223860692637 
162, -1.0441700220108032, 1.357050895690918, 0.6617438793182373, -0.3170166015625, 0.025604248046875, 0.437286376953125, 110.62310713423454, -105.21909864170107, -51.00030566046367 
163, -0.4538116455078125, 0.3731679916381836, 1.0510914325714111, -0.25506591796875, -0.292694091796875, 0.1820068359375, 111.00680889707054, -107.85380715162943, -50.494340265243835 
164, 0.09867596626281738, 0.9732913970947266, 0.1715073585510254, -0.668426513671875, 0.170867919921875, 0.249298095703125, 112.64719272868408, -109.85222718946605, -50.18874808062103 
165, -0.4878873825073242, 1.29010009765625, 1.162734031677246, -0.837188720703125, 0.4090576171875, 0.41058349609375, 118.5957072791785, -112.96219303751013, -44.032168255538636 
166, 0.6753184795379639, -0.5451383590698242, 0.09877967834472656, -0.563751220703125, 0.168731689453125, 0.3699951171875, 121.22406660925967, -117.88191575423733, -40.33703726724358 
167, -0.10560131072998047, 0.32655906677246094, -0.2226393222808838, -0.422760009765625, 0.071533203125, 0.47039794921875, 121.94716145725837, -122.24378092321956, -38.407713842493706 
168, -0.06731104850769043, -0.11648845672607422, -1.0770659446716309, -0.38323974609375, 0.091827392578125, 0.642364501953125, 120.81516007432658, -126.07752100704414, -38.8831817643183 
169, 0.49426817893981934, -0.06950187683105469, -0.8874707221984863, -0.469757080078125, -0.111114501953125, 0.54730224609375, 118.74390462866957, -130.27771460167247, -40.46299927724396 
170, -0.9868717193603516, -0.29897022247314453, -1.6163573265075684, -0.450531005859375, -0.056640625, 0.477874755859375, 117.70535098533294, -135.2576699042745, -41.810421516343276 
171, -1.7945075035095215, -2.2830357551574707, -2.3746728897094727, -0.046783447265625, 0.0330810546875, 0.208709716796875, 117.01475683136765, -138.47027086118226, -42.594258824503214 
172, -1.8747200965881348, -3.325817108154297, -2.2005615234375, 0.472320556640625, 0.0501708984375, -0.48663330078125, 116.38734884902773, -137.9598630413142, -42.87986395382248 
173, -0.507542610168457, -0.5606703758239746, -0.8322834968566895, 0.71051025390625, 0.14202880859375, -0.797454833984375, 117.00676538209943, -133.15039366143523, -41.96339777354522 
174, -0.15329551696777344, 1.0784516334533691, -0.5644073486328125, 0.485137939453125, -0.089752197265625, -0.77716064453125, 118.61581599222117, -127.33634792769908, -39.88101686286486 
175, -0.3149118423461914, 1.3264904022216797, 0.413210391998291, 0.638946533203125, -0.26385498046875, -0.624420166015625, 121.04971537546811, -122.42244680776518, -38.44859584679779 
176, 0.9088568687438965, 0.4408903121948242, 0.34952259063720703, 0.493682861328125, -0.145294189453125, -0.592376708984375, 122.02026894456787, -117.66581879369372, -39.43160008202613 
177, 0.42756056785583496, 2.7683963775634766, -0.011581659317016602, 0.44134521484375, -0.28948974609375, -0.487701416015625, 124.18479133518957, -112.72619623617895, -38.61037805409379 
178, 0.002732396125793457, 0.7037563323974609, 0.47838878631591797, 0.564178466796875, -0.331146240234375, -0.36273193359375, 125.05932585195382, -109.31642661270202, -39.555578997811914 
179, 0.32859838008880615, 2.6850662231445312, 0.5104466676712036, 0.24267578125, -0.057708740234375, -0.02734375, 122.91098916823073, -105.90904368682644, -43.27977533825971 
180, 1.0510177612304688, 0.5877170562744141, 0.7773690223693848, 0.062164306640625, -0.072662353515625, 0.00897216796875, 120.67800258031741, -104.94247094811723, -45.8050661412066 
181, -0.22732162475585938, -0.216766357421875, 1.3759454488754272, -0.13970947265625, -0.013916015625, 0.19482421875, 119.06498580621485, -105.2687024174183, -47.161083032521894 
182, -0.2917090654373169, 0.6660900115966797, 0.6141462326049805, -0.029693603515625, 0.115325927734375, 0.27813720703125, 119.08430557900041, -106.52127930949649, -47.265882530615954 
183, 1.1606087684631348, 2.3926477432250977, -1.14042067527771, -0.31488037109375, 0.006378173828125, 0.07733154296875, 116.8951816811383, -108.05836643737035, -48.54890715378661 
184, -0.6028587818145752, 1.0235652923583984, 1.1099860668182373, -0.52850341796875, 0.032012939453125, 0.392425537109375, 120.91958434560607, -111.13632200461845, -43.27158300181396 
185, 0.33518362045288086, -0.9117660522460938, 0.09103631973266602, -0.401397705078125, 0.06939697265625, 0.493896484375, 122.86245141656049, -116.85098391729807, -40.13216814262037 
186, -1.1416599750518799, -0.15234994888305664, -0.3406529426574707, -0.45587158203125, 0.40264892578125, 0.574005126953125, 122.66727280555013, -121.27981563794873, -38.95233397454675 
187, 0.2800285816192627, 0.1527562141418457, -0.9469599723815918, -0.454803466796875, 0.059783935546875, 0.595367431640625, 120.69756532921964, -125.50388066794885, -38.9208324624665 
188, -0.8606035709381104, -0.27820253372192383, -0.9756126403808594, -0.59259033203125, -0.160247802734375, 0.561187744140625, 119.5924827941783, -130.1220168698762, -39.96958544440377 
189, -1.182826042175293, -0.4470481872558594, -0.882962703704834, -0.478302001953125, -0.10791015625, 0.599639892578125, 119.2596092655348, -134.7354136829108, -40.99959277466421 
190, -1.645279884338379, -2.055403232574463, -1.839263916015625, -0.296722412109375, -0.040618896484375, 0.2930908203125, 118.63168602989634, -138.62312862269846, -41.81245461697877 
191, -2.086516857147217, -3.3987350463867188, -2.401139736175537, 0.353759765625, 0.079010009765625, -0.233489990234375, 118.7150918249252, -139.4329998841916, -42.07337891762311 
192, -0.9208879470825195, -1.6309747695922852, -1.5908417701721191, 0.781005859375, 0.288360595703125, -0.675689697265625, 118.60584666310841, -135.37542061691656, -41.37446956209471 
193, -0.08281207084655762, 0.12999534606933594, -0.6276359558105469, 0.668853759765625, 0.074737548828125, -0.72161865234375, 118.63260375871891, -129.34465748650217, -39.928355552556745 
194, -0.535846471786499, 1.4367108345031738, 0.06556296348571777, 0.521453857421875, -0.388824462890625, -0.748321533203125, 119.92263519917898, -123.98382128688391, -38.58583909621318 
195, 0.030791759490966797, 1.2426128387451172, 0.30103373527526855, 0.6357421875, -0.3984375, -0.776092529296875, 123.02122109582756, -118.04857191490993, -38.62684006599794 
196, 0.10482501983642578, 2.3345718383789062, 0.31906580924987793, 0.493682861328125, -0.2147216796875, -0.521881103515625, 125.48741056222508, -112.70248478072894, -38.371126828095484 
197, 0.010607481002807617, 1.6176586151123047, 0.5755438804626465, 0.4434814453125, -0.354644775390625, -0.24951171875, 125.2508518620196, -109.05060402703235, -39.9568423621101 
198, 1.268380045890808, 1.2258100509643555, 1.6592015027999878, 0.319580078125, 0.2509765625, -0.11492919921875, 124.6600564500854, -106.37283267618656, -41.720908146938754 
199, 0.7264022827148438, 0.18873214721679688, 1.2437541484832764, -0.029693603515625, 0.354583740234375, 0.104034423828125, 120.77434018735052, -104.75443382794877, -44.653635921290764 
200, 0.12965881824493408, 0.7394170761108398, 1.8341797590255737, -0.11407470703125, -0.1976318359375, 0.153167724609375, 118.37188574417542, -105.14483347396552, -45.353632022760515 
201, -0.662606954574585, -0.7670536041259766, 2.6475586891174316, -0.251861572265625, -0.0908203125, 0.23541259765625, 117.7906539461473, -106.2626848586809, -46.46367340295639 
202, 1.1521146297454834, 3.495128631591797, 0.388796329498291, -0.74853515625, 0.59918212890625, 0.302703857421875, 116.12531183680655, -107.45712538025802, -48.97622128804511 
203, 0.9006378650665283, 1.3658733367919922, 1.407423973083496, -1.02410888671875, 0.43896484375, 0.63275146484375, 120.4559858201342, -111.53772083417331, -43.196462934306176 
204, -1.0914123058319092, -1.4767265319824219, 0.860166072845459, -0.625701904296875, 0.24456787109375, 0.627410888671875, 122.86455219560702, -119.04345230918054, -39.13005180158638 
205, -0.34703636169433594, 0.6211037635803223, -0.5374021530151367, -0.62677001953125, 0.196502685546875, 0.57080078125, 121.56359815522967, -123.7053238022893, -39.05784279167781 
206, -0.8143541812896729, 0.07979583740234375, -0.9751801490783691, -0.580841064453125, -0.1378173828125, 0.56866455078125, 120.59365741540675, -128.35162123511458, -39.00287840669792 
207, -0.8239450454711914, -0.8667550086975098, -1.1142759323120117, -0.64813232421875, -0.19549560546875, 0.528076171875, 120.01780603043224, -133.4687972439304, -40.31347841833578 
208, -0.2980337142944336, -0.5234708786010742, -1.1943578720092773, -0.54559326171875, -0.066253662109375, 0.494964599609375, 120.13363204252369, -138.13090378879306, -41.16903945166885 
209, -1.7076606750488281, -2.6506567001342773, -2.011117935180664, -0.106597900390625, -0.019256591796875, 0.200164794921875, 120.17103513014878, -141.54269314013214, -41.27675406715538 
210, -2.2016358375549316, -3.1441946029663086, -2.272146224975586, 0.439208984375, 0.019195556640625, -0.511199951171875, 120.05154407318753, -140.9852294489732, -41.350200731032324 
211, -1.0163488388061523, -1.3640727996826172, -1.124720573425293, 0.745758056640625, 0.061920166015625, -0.829498291015625, 121.08276144523224, -136.05327922265653, -40.49426060911187 
212, -0.3731684684753418, 0.38848066329956055, -0.5896811485290527, 0.575927734375, -0.053436279296875, -0.825225830078125, 122.77483933035461, -130.00938752212548, -38.79571192764689 
213, -0.38686442375183105, 0.42423486709594727, 0.26953601837158203, 0.60797119140625, -0.322601318359375, -0.78143310546875, 125.30602269044677, -124.70089479418472, -37.566670713355194 
214, 0.28061771392822266, 1.6513700485229492, 0.6155598163604736, 0.7425537109375, -0.322601318359375, -0.788909912109375, 127.41037009806911, -118.78465913871636, -37.92453685731604 
215, 0.3577299118041992, 1.498591423034668, 0.6298062801361084, 0.487274169921875, -0.121795654296875, -0.46954345703125, 127.41037009806911, -118.78465913871636, -37.92453685731604 
216, 0.6914368867874146, 2.144768714904785, -0.04882311820983887, 0.899566650390625, -0.2061767578125, -0.394775390625, 129.30834591334667, -107.93719461271509, -38.807915300756314 
217, 1.114108681678772, 2.8006420135498047, -0.9834705591201782, -0.108734130859375, -0.042755126953125, 0.093353271484375, 124.37708056450714, -103.68674852252714, -44.40873509723317 
218, -0.15726399421691895, -0.04554176330566406, -0.05606663227081299, 0.11236572265625, 0.168731689453125, 0.356109619140625, 119.87600368388681, -104.09924709069813, -48.00503919243545 
219, 0.372969388961792, -0.0874776840209961, 0.1459348201751709, 0.215972900390625, 0.061920166015625, 0.08587646484375, 112.19020386509514, -105.10343261904157, -54.57472509083543 
220, 0.8960566520690918, -0.22917747497558594, 0.6223737001419067, 0.121978759765625, -0.162384033203125, 0.0751953125, 105.28111972944433, -104.84422507660388, -60.76985185694802 
221, 5.06589412689209, -0.19315433502197266, 0.4555467367172241, -0.2144775390625, 0.303314208984375, 0.952117919921875, 100.99032547416414, -105.61504701239363, -65.64351093229362 
222, -1.8946022987365723, -0.7034130096435547, -0.30633723735809326, -0.525299072265625, 0.205047607421875, 0.653045654296875, 97.6398700267359, -108.36573488858589, -67.5519273686634 
223, -0.46986961364746094, -1.445028305053711, -0.027010440826416016, -0.119415283203125, 0.068328857421875, 0.024993896484375, 100.17746905055444, -113.73251251291119, -62.06638826632137 
224, -0.041970252990722656, 0.4565887451171875, 1.132607340812683, -0.130096435546875, 0.421875, 0.0111083984375, 100.2302667914847, -113.63156307086538, -64.34377035211861 
225, -1.029953956604004, -0.43640613555908203, 0.5270112752914429, 0.025848388671875, 0.1356201171875, -0.141632080078125, 99.85004519758495, -113.09733577600534, -64.09509705328102 
226, -2.1057562828063965, 2.332892417907715, -1.3366988897323608, 0.453094482421875, -0.34075927734375, -0.684234619140625, 100.74941199157921, -111.82321060677224, -63.40636662078661 
227, -0.7532329559326172, -0.5273847579956055, 0.9388635158538818, -0.157867431640625, 1.382110595703125, -0.402252197265625, 104.47475649621617, -109.95189709016618, -58.02703142920782 
228, 3.0429930686950684, -3.7249698638916016, -1.5172252655029297, 1.0843505859375, -1.52850341796875, 1.35693359375, 109.07670025270883, -111.08811000270109, -46.96804279729274 
229, -2.6217808723449707, -2.555922508239746, 0.41159141063690186, 0.27685546875, -1.266815185546875, -0.105316162109375, 102.43091261295125, -112.50297576771528, -57.228197448723606 
230, -1.510307788848877, -0.7407598495483398, 0.20437288284301758, -0.48577880859375, -0.260650634765625, -1.049530029296875, 114.87526878275278, -109.7871910131355, -55.26098024722459 
231, -7.332043170928955, -0.6605796813964844, 3.840365409851074, -2.5087890625, -1.22515869140625, -5.2269287109375, 164.20061147993283, -109.74899239515405, -15.023408447140625 
232, -1.1240289211273193, 3.8360977172851562, -10.314233779907227, -0.200592041015625, -6.94384765625, 1.689117431640625, 215.59630450047393, -114.48591225110984, 11.006891834966751 
233, 2.6995766162872314, 1.4190263748168945, -3.73098087310791, -1.8721923828125, -4.44232177734375, 1.913421630859375, 198.72717182756753, -121.15537929589684, -38.174946525376576 
234, 3.212623119354248, -0.5780887603759766, 3.815638303756714, -0.53704833984375, -0.93463134765625, 2.84588623046875, 198.14764337682516, -138.2466516421885, -62.642908805164744 
235, 2.7908921241760254, -2.5336217880249023, -0.24331092834472656, -3.2821044921875, -3.180877685546875, -0.35205078125, 211.3751531956304, -144.79507445133547, -59.49641245756049 
236, 2.111489772796631, -0.700345516204834, -1.4979221820831299, -0.168548583984375, -5.6834716796875, 0.81646728515625, 225.70050075311536, -149.65136756866465, -78.24038621947498 
237, -3.3349695205688477, -2.6056671142578125, 1.7332572937011719, -1.218505859375, -1.6417236328125, 0.254638671875, 41.73776846068062, -24.792210231747216, 62.621155149233864 
238, -0.895777702331543, -0.3727078437805176, 1.436683177947998, 0.271514892578125, -0.77227783203125, -0.48663330078125, 48.94480889912631, -26.27092796159158, 56.84325736649729 
239, 1.3067550659179688, 0.531425952911377, 0.637110710144043, 0.524658203125, -0.188018798828125, -0.514404296875, 46.69475212967855, -27.06997638187006, 52.4055786147723 
240, -0.553530216217041, 1.6114988327026367, 2.1459569931030273, -0.892730712890625, 0.22320556640625, -0.239898681640625, 43.67384311989726, -29.01557992663745, 51.034030139875085 
241, -0.8252739906311035, -1.5234365463256836, -0.4858055114746094, 0.500091552734375, 0.672882080078125, 0.1221923828125, 48.09438525629085, -34.59306682514424, 54.96747106837616 
242, -0.8560676574707031, -0.4707674980163574, 1.5431103706359863, 0.0888671875, 0.433624267578125, -0.52935791015625, 46.34793881452261, -36.10359885216301, 58.105181845350174 
243, 1.2354130744934082, -0.20766878128051758, 0.6464071273803711, 0.3580322265625, -0.254241943359375, -0.27728271484375, 46.34793881452261, -36.10359885216301, 58.105181845350174 
244, -3.0985655784606934, 0.8227863311767578, 3.290752649307251, -2.251373291015625, 1.074493408203125, 0.16278076171875, 39.96360096511451, -38.50046464313654, 56.46496356852097 
245, -1.3167634010314941, -0.5011868476867676, 1.0832903385162354, 0.072845458984375, 0.008514404296875, -0.047637939453125, 43.04371672407293, -40.440033213644185, 64.10416940941862 
246, 5.430744171142578, 1.4957609176635742, -13.396947860717773, -3.838592529296875, 0.39837646484375, -0.30291748046875, 41.328871664415395, -38.771244288784594, 62.89298391582017 
247, 4.511927604675293, 1.5241990089416504, -2.965625286102295, -1.12451171875, -2.16510009765625, 4.19171142578125, 58.70955126782312, -37.47975811269926, 71.32242949726096 
248, 2.029183864593506, -3.16685152053833, -1.1844687461853027, -4.628997802734375, -6.302978515625, 5.265167236328125, 82.133595639684, -17.418636212383042, 63.20041828186905 
249, -0.5903759002685547, 0.9121356010437012, 0.371767520904541, -0.694061279296875, -1.745330810546875, 0.82501220703125, 117.88340339157247, -14.206970712574508, 31.319515319131042 
250, -2.3632395267486572, -0.9944963455200195, -1.6304168701171875, -1.3680419921875, -1.783782958984375, -0.19183349609375, 128.6480007683836, -23.598858880953156, 24.866464313952118 
251, -1.7578704357147217, 2.110016345977783, -2.6480817794799805, 0.369781494140625, 0.37060546875, 0.394561767578125, 130.08927458566288, -23.625276824448346, 14.898872404885688 
252, 0.795470118522644, -0.7990174293518066, 1.026738166809082, 1.343902587890625, -1.12689208984375, 1.061065673828125, 133.2343051972736, -19.82636542698561, 12.943336765808768 
253, -1.0530496835708618, 0.39827144145965576, 0.029399871826171875, 0.275787353515625, -0.62060546875, 0.578277587890625, 137.37947110019854, -12.660111272335604, 8.029550175168632 
254, 0.1756676435470581, 0.5276623964309692, 0.26300907135009766, -0.488983154296875, 0.27447509765625, -0.1640625, 140.4408197870232, -11.587254491789206, 7.308784368080236 
255, -1.3379244804382324, 0.007907748222351074, 0.48415565490722656, 0.121978759765625, 0.076873779296875, -0.073272705078125, 140.50046697275286, -12.440457911985707, 7.323870156144318 
256, -0.6415102481842041, 0.1581493616104126, 0.3467426300048828, 0.00982666015625, -0.1292724609375, -0.0059814453125, 140.1260724031575, -11.957021460536582, 7.648342353277701 
257, -0.01904153823852539, 0.4676985740661621, 0.2380361557006836, -0.34906005859375, 0.12066650390625, 0.157440185546875, 140.0717934397767, -11.542096905169661, 6.335693113770106 
258, -0.23434948921203613, -0.0924837589263916, 0.8984766006469727, 0.096343994140625, 0.2039794921875, -0.03375244140625, 140.6727304478589, -12.308410574620837, 7.630431633924706 
259, -0.8934749364852905, 0.2596151828765869, 0.638850212097168, 0.399688720703125, 0.344970703125, 0.109375, 140.12509953739422, -10.113761423614296, 9.971038172899194 
