#Measurement, Acceleration X, Acceleration Y, Acceleration Z 
1, -2.6485791206359863, -0.9812283515930176, 0.1643519103527069 
2, -4.0097174644470215, -1.4710125923156738, 5.487044334411621 
3, -3.1029481887817383, 0.911409854888916, 2.1061229705810547 
4, 2.4119205474853516, 2.3744921684265137, -4.434871673583984 
5, 0.32042765617370605, -5.290132999420166, -2.7247183322906494 
6, -2.3617093563079834, -6.826254367828369, 6.201666831970215 
7, -2.8611457347869873, -10.148327827453613, 3.601565361022949 
8, 2.92488694190979, 6.975222587585449, -8.394775390625 
9, 7.080595970153809, 15.817731857299805, 2.96579647064209 
10, 4.919124603271484, 12.394378662109375, -4.53537654876709 
11, -3.181210994720459, -1.1180353164672852, 0.33437567949295044 
12, -7.063810348510742, -1.0865797996520996, 19.640424728393555 
13, 5.711109161376953, 21.431812286376953, -15.6502685546875 
14, 7.079391002655029, 11.717912673950195, -10.057220458984375 
15, -3.2112715244293213, 2.114508628845215, -3.534400224685669 
16, -1.8704783916473389, -1.5293493270874023, 2.465177059173584 
17, -3.3285584449768066, -3.391511917114258, 3.7106611728668213 
18, -2.1876463890075684, 2.5632057189941406, -0.6220614910125732 
19, -1.1459487676620483, 3.962946891784668, -1.8522202968597412 
20, -0.7108080983161926, 3.418050765991211, 0.7966827750205994 
21, -0.9315242767333984, 2.64083194732666, 0.21380436420440674 
22, -0.8334516882896423, 1.932180404663086, -1.400109052658081 
23, -0.19968456029891968, 0.9352998733520508, -1.3389310836791992 
24, -0.9096682071685791, 0.25038814544677734, -1.8781918287277222 
25, 0.833328902721405, -0.2071208953857422, -1.4221787452697754 
26, 4.007940292358398, -3.503946304321289, 0.3928796648979187 
27, -1.4693832397460938, -1.5035943984985352, 2.9445106983184814 
28, -0.5985342264175415, 0.3063383102416992, 0.45192772150039673 
29, -0.2244483232498169, 0.6317253112792969, -0.48185810446739197 
30, -0.19848963618278503, 0.6128921508789062, -0.49024829268455505 
31, -0.15146058797836304, 0.6515483856201172, -0.04434095323085785 
32, -0.6263958811759949, 0.6898298263549805, -0.5966182947158813 
33, -1.4449964761734009, 0.3360280990600586, -0.5418387651443481 
34, -1.4042493104934692, 0.25319957733154297, -0.5928184390068054 
35, -1.1586891412734985, -0.08846378326416016, -0.6536039113998413 
36, -0.861027181148529, -0.010035514831542969, -0.3874664306640625 
37, -0.9999512434005737, 0.02987957000732422, -0.3780789375305176 
38, -0.856177806854248, 0.032222747802734375, -0.24240383505821228 
39, -0.6977454423904419, 0.2975196838378906, -0.24491611123085022 
40, -0.7330437898635864, 0.2771415710449219, -0.32951098680496216 
41, -0.8655625581741333, 0.16475963592529297, -0.28865867853164673 
42, -1.149122714996338, 0.3187875747680664, -0.2007732391357422 
43, -1.4474200010299683, 0.5281944274902344, -0.1279316544532776 
44, -1.5499756336212158, 0.4174032211303711, -0.08849883079528809 
45, -1.4014673233032227, 0.18129539489746094, -0.12009096145629883 
46, -1.059844732284546, 0.1805400848388672, -0.28225910663604736 
47, -0.9818152189254761, 0.20383358001708984, -0.4724191427230835 
48, -1.109828233718872, 0.13745403289794922, -0.30863988399505615 
49, -1.00565767288208, 0.05881214141845703, -0.3043062686920166 
50, -0.840297520160675, -0.013031005859375, -0.19017112255096436 
51, -0.5502592325210571, -0.41428375244140625, 0.32648348808288574 
52, -0.40310895442962646, -0.6918754577636719, 0.9024782180786133 
53, -0.14689290523529053, -1.0298995971679688, 1.2890779972076416 
54, 0.20408165454864502, -1.3192968368530273, 2.3153226375579834 
55, 0.39149951934814453, -1.3987836837768555, 2.3496313095092773 
56, 0.37205350399017334, -1.3521785736083984, 2.2049498558044434 
57, 0.2721536159515381, -1.3375091552734375, 1.8882567882537842 
58, 0.07696533203125, -1.4349822998046875, 1.1095454692840576 
59, 0.10387206077575684, -1.6264972686767578, -0.3992350101470947 
60, 0.0523761510848999, -1.9437942504882812, -0.0923929214477539 
61, -0.40260159969329834, -1.8755664825439453, 0.6232481002807617 
62, -0.6546005010604858, -1.6006050109863281, 0.5425465106964111 
63, -0.7381248474121094, -1.4143009185791016, 0.4692668914794922 
64, -0.7068169116973877, -1.4222040176391602, 0.050699710845947266 
65, -0.661163330078125, -1.3173151016235352, -0.18633460998535156 
66, -0.8895375728607178, -1.0994091033935547, -0.2142477035522461 
67, -1.1065082550048828, -0.9415216445922852, 0.02471446990966797 
68, -1.2389076948165894, -0.5615243911743164, -0.07068443298339844 
69, -1.2646033763885498, 0.05994129180908203, -0.42774510383605957 
70, -1.160334825515747, 0.4879484176635742, -0.33158135414123535 
71, -1.091116189956665, 0.6912002563476562, -0.5201549530029297 
72, -1.6149466037750244, 1.541487693786621, -0.27859973907470703 
73, -1.5141900777816772, 1.2477703094482422, 0.4637502431869507 
74, -0.8743245601654053, 0.9264631271362305, 0.6997197866439819 
75, -0.016242265701293945, 0.6114845275878906, 0.42778635025024414 
76, -0.016242265701293945, 0.6114845275878906, 0.42778635025024414 
77, 0.9605392217636108, 0.41069984436035156, -0.2921590805053711 
78, 0.48745977878570557, 0.23616886138916016, -0.27564549446105957 
79, -0.05326879024505615, 0.12114715576171875, -0.2599029541015625 
80, -0.35517966747283936, -0.029521942138671875, -0.4526491165161133 
81, -0.36434638500213623, -0.19626903533935547, -0.6636879444122314 
82, -0.33315765857696533, -0.26604175567626953, -0.6639759540557861 
83, -0.34081780910491943, -0.3735036849975586, -0.5861266851425171 
84, -0.25165796279907227, -0.2721099853515625, -0.485171914100647 
85, -0.19746720790863037, 0.18788528442382812, -0.13420617580413818 
86, 0.10590970516204834, 0.6234636306762695, 0.18035101890563965 
87, 0.4084819555282593, 0.7126522064208984, 0.11721253395080566 
88, 0.36828458309173584, 0.5355720520019531, 0.05592036247253418 
89, 0.17638897895812988, 0.3418407440185547, -0.12078046798706055 
90, 0.0028024911880493164, 0.26468658447265625, -0.1495218276977539 
91, 0.22227931022644043, -0.2851848602294922, -0.10966968536376953 
92, 0.43382275104522705, -0.10065364837646484, -0.7719190120697021 
93, 0.4075268507003784, -0.09283161163330078, -0.808769702911377 
94, -0.011606097221374512, -0.063201904296875, -1.4344160556793213 
95, -0.20556199550628662, -0.18266773223876953, -1.7266900539398193 
96, -0.25338900089263916, -0.027319908142089844, -1.97371506690979 
97, -0.2725541591644287, -0.051128387451171875, -1.8183956146240234 
98, -0.16270995140075684, -0.2716531753540039, -1.6727783679962158 
99, -0.16549134254455566, -0.4991111755371094, -1.9105112552642822 
100, -0.28792238235473633, -0.9810171127319336, -2.1825859546661377 
101, -0.2606767416000366, -1.4333457946777344, -2.266784191131592 
102, -0.1006927490234375, -1.9112634658813477, -2.3009331226348877 
103, 0.03474760055541992, -2.123933792114258, -1.9952595233917236 
104, 0.2539440989494324, -1.842259407043457, -1.451770544052124 
105, 0.664483904838562, -1.810194969177246, -1.0335359573364258 
106, 0.6881231069564819, -1.862196922302246, -0.622276782989502 
107, 0.38661861419677734, -2.0203418731689453, -0.8660182952880859 
108, 0.3181735873222351, -2.312326431274414, -1.0689458847045898 
109, 1.229154109954834, -2.882065773010254, -0.7302594184875488 
110, 1.8965259790420532, -3.0942888259887695, -0.9375948905944824 
111, 0.666228175163269, -2.2306580543518066, -0.22849130630493164 
112, 0.5589426755905151, -1.9928092956542969, -0.4943714141845703 
113, 0.1282702535390854, -0.6367788314819336, 1.3724637031555176 
114, 0.4455176591873169, 0.5723433494567871, 1.765761375427246 
115, -0.2588098347187042, -3.3104896545410156, -4.073422431945801 
116, -1.5618633031845093, -4.08395528793335, -2.4178977012634277 
117, -0.865607500076294, -0.5711522102355957, 0.6350936889648438 
118, 0.020194053649902344, 0.24066543579101562, 1.6498136520385742 
119, 0.7176532745361328, -0.3288702964782715, 1.047166347503662 
120, 1.3615260124206543, -0.2644767761230469, 0.8445768356323242 
121, 1.1348445415496826, -0.47887086868286133, 0.23790931701660156 
122, 0.24507880210876465, -0.5728545188903809, 0.31554603576660156 
123, -0.5245500206947327, 0.1388235092163086, 1.1094036102294922 
124, -0.43692731857299805, 0.6416547298431396, 1.890070915222168 
125, 0.04482090473175049, 0.7973625659942627, 1.3860101699829102 
126, 0.08568859100341797, 0.4162921905517578, 1.1102924346923828 
127, 0.16679835319519043, -0.533888578414917, 1.3447933197021484 
128, 1.0738685131072998, -0.5111603736877441, 1.8000822067260742 
129, 1.6244372129440308, -0.15633630752563477, 1.7900619506835938 
130, 1.2684954404830933, 0.019546151161193848, 1.7912397384643555 
131, 0.17786157131195068, -0.1160440444946289, 1.4392805099487305 
132, 0.17974042892456055, 0.1647195816040039, 1.3912982940673828 
133, 0.2842153310775757, -0.1560760736465454, 1.4646692276000977 
134, 1.0309398174285889, -0.38720351457595825, 1.6404151916503906 
135, 1.656559705734253, -0.3020983934402466, 2.1453657150268555 
136, 0.9058518409729004, -0.30664488673210144, 3.4334869384765625 
137, 0.7640349864959717, -0.6356210708618164, 3.9955759048461914 
138, 1.269004225730896, -0.9364230036735535, 4.540318489074707 
139, 1.5331616401672363, -1.1973772048950195, 5.789118766784668 
140, 1.7494449615478516, -1.4220257997512817, 7.181424140930176 
141, 1.9929170608520508, -2.270585298538208, 8.008965492248535 
142, 2.2987217903137207, -2.847939968109131, 7.495516777038574 
143, 1.9035639762878418, -2.21928334236145, 7.058799743652344 
144, 1.4113417863845825, -1.6310195922851562, 6.6988019943237305 
145, 1.4151990413665771, -1.2365458011627197, 6.514052391052246 
146, 1.2349483966827393, -1.1427465677261353, 6.4112653732299805 
147, 1.1395394802093506, -1.2843092679977417, 5.575397491455078 
148, 1.148409128189087, -1.5259201526641846, 4.853656768798828 
149, 1.1049270629882812, -1.7003285884857178, 4.915515899658203 
150, 0.9208967685699463, -2.0211806297302246, 4.9080400466918945 
151, 0.47684645652770996, -2.8951337337493896, 3.939769744873047 
152, 0.28941357135772705, -1.6841695308685303, 2.794680595397949 
153, 0.1905968189239502, -2.2464210987091064, 2.9493913650512695 
154, 0.4809563159942627, -1.6747395992279053, 3.1045093536376953 
155, 0.7910894155502319, -0.8791608810424805, 1.2090492248535156 
156, 0.2829540967941284, -1.5514240264892578, 0.09548664093017578 
157, 0.03966057300567627, -2.9484024047851562, 0.24074459075927734 
158, -0.28837263584136963, -4.0530242919921875, -0.16609573364257812 
159, 0.2407238483428955, -4.132042407989502, -1.965773105621338 
160, 0.6635682582855225, -2.6438674926757812, -4.092470645904541 
161, -1.2599016427993774, -0.7759194374084473, -3.0995631217956543 
162, -1.320757508277893, -1.1536765098571777, -1.7366437911987305 
163, 1.1224778890609741, -3.2969255447387695, -1.8558282852172852 
164, 1.9298858642578125, -5.644979476928711, -1.960216999053955 
165, 0.5347128510475159, -7.641582489013672, -2.530876636505127 
166, -0.4476191997528076, -7.508205413818359, -3.368936538696289 
167, -0.18011826276779175, -6.446598052978516, -3.771371841430664 
168, 0.39003586769104004, -5.925013542175293, -3.662797451019287 
169, 0.8525482416152954, -5.392792701721191, -3.218144178390503 
170, 0.9603683948516846, -3.9409074783325195, -2.7998690605163574 
171, 0.1760830581188202, -2.472590446472168, -3.4247846603393555 
172, -3.498462677001953, -1.879251480102539, -5.364057540893555 
173, -3.5272605419158936, -1.920466423034668, -5.176710605621338 
174, -4.378750801086426, -3.0603866577148438, -5.024171829223633 
175, -4.0889811515808105, -2.7598953247070312, -4.397336959838867 
176, -2.7415947914123535, -0.39263916015625, -3.5639092922210693 
177, -1.18528151512146, 3.5285892486572266, -1.6829304695129395 
178, -0.5004832744598389, 3.026205062866211, -0.45411109924316406 
179, 0.14686709642410278, 1.8167381286621094, 0.7511258125305176 
180, -0.34639811515808105, 1.598933219909668, 0.2562291622161865 
181, -0.9042366743087769, 1.317387580871582, -0.6877586841583252 
182, -1.2812039852142334, 0.5369472503662109, -0.9833371639251709 
183, -1.2657341957092285, -0.14709091186523438, -0.8491857051849365 
184, -1.0367212295532227, -0.4496650695800781, -1.068681240081787 
185, -0.9141668081283569, -0.7133302688598633, -1.1708369255065918 
186, -0.8456611037254333, -0.8007545471191406, -0.8634002208709717 
187, -0.6689105033874512, -0.36661720275878906, -0.6734645366668701 
188, -0.5006358027458191, 0.22362136840820312, -0.31322550773620605 
189, -0.34617161750793457, 0.4150524139404297, -0.23763513565063477 
190, -0.3216426968574524, 0.11448287963867188, -0.16019845008850098 
191, -0.2958011031150818, -0.16323566436767578, -0.07231855392456055 
192, -0.34980374574661255, -0.17269039154052734, -0.04263186454772949 
193, -0.26300233602523804, 0.1403961181640625, 0.14232563972473145 
194, -0.2657773494720459, 0.14394187927246094, 0.12418437004089355 
195, -0.20077890157699585, 0.05003643035888672, 0.054384708404541016 
196, -0.14040422439575195, 0.0127410888671875, -0.16486334800720215 
197, -0.09833425283432007, 0.014532089233398438, -0.21392416954040527 
198, -0.1485966444015503, -0.13483333587646484, -0.24780678749084473 
199, -0.11521059274673462, -0.2621116638183594, -0.4405350685119629 
200, -0.09469830989837646, -0.3278369903564453, -0.6059949398040771 
201, -0.18696743249893188, -0.3898801803588867, -0.5340898036956787 
202, -0.26413410902023315, -0.4491863250732422, -0.49059176445007324 
203, -0.26857680082321167, -0.4488096237182617, -0.2831451892852783 
204, -0.3271501064300537, -0.46593475341796875, 0.14914345741271973 
205, -0.36181825399398804, -0.34792327880859375, -0.01411128044128418 
206, -0.531356692314148, -0.1313953399658203, -0.511174201965332 
207, -0.5342614650726318, -0.19722270965576172, -0.6954777240753174 
208, -0.29607516527175903, -0.5064296722412109, -0.7949075698852539 
209, -0.48646360635757446, -1.0008296966552734, -0.8275916576385498 
210, -0.9465778470039368, -1.1083440780639648, -0.3695683479309082 
211, -0.9425849914550781, -0.6575222015380859, 0.11753702163696289 
212, -0.40119045972824097, -0.22225475311279297, 0.11743044853210449 
213, 0.03517383337020874, -0.7347307205200195, -0.793750524520874 
214, 0.00956416130065918, -0.6752653121948242, -0.9259598255157471 
215, -0.4915500283241272, -0.9909400939941406, -1.104701042175293 
216, -0.46964091062545776, -1.1096649169921875, -0.656651496887207 
217, -0.4821707010269165, 0.017785072326660156, 0.5093717575073242 
218, -0.3907884955406189, 0.11492156982421875, 0.33148908615112305 
219, -0.600149929523468, -0.21167278289794922, -0.7684340476989746 
220, -0.9024779200553894, -0.5957584381103516, -1.4351286888122559 
221, -0.8764256834983826, -0.6442422866821289, -1.2709789276123047 
222, -0.8183530569076538, -0.41445350646972656, -0.6624326705932617 
223, -0.5731595754623413, -0.08172225952148438, -0.12050294876098633 
224, -0.15842652320861816, 0.08176326751708984, -0.11339139938354492 
225, -0.06354297697544098, -0.028186798095703125, -0.7401285171508789 
226, -0.34092020988464355, -0.42495298385620117, -0.9370326995849609 
227, 0.13515648245811462, -0.8297052383422852, -1.1396594047546387 
228, -0.0700637698173523, -0.9718422889709473, -0.6457333564758301 
229, -0.581991970539093, -0.5150771141052246, 0.4552464485168457 
230, -0.4724445343017578, -0.1812891960144043, 0.7272796630859375 
231, -0.15161991119384766, -0.0066852569580078125, -0.019902706146240234 
232, 0.12806013226509094, -0.30501508712768555, -0.5925145149230957 
233, -0.1704581379890442, -0.7116308212280273, -0.5711445808410645 
234, -0.15700674057006836, -0.023578166961669922, 0.5959258079528809 
235, -0.24768736958503723, 0.09403800964355469, 0.4812593460083008 
236, 0.18771278858184814, -0.6986207962036133, -0.060547828674316406 
237, -0.4797070622444153, -1.8821778297424316, 0.26905202865600586 
238, 0.05289006233215332, -0.8629517555236816, 0.49657392501831055 
239, 0.41638118028640747, -0.6040267944335938, 0.05767488479614258 
240, 0.5632699131965637, -0.7830390930175781, -0.5456175804138184 
241, 0.27915143966674805, -1.1647205352783203, -0.13252830505371094 
242, 0.06884133815765381, -1.4229955673217773, -0.042022705078125 
243, -0.1703440546989441, -1.4443936347961426, -0.46228504180908203 
244, -0.12606310844421387, -1.0367188453674316, 0.038161277770996094 
245, 0.19179373979568481, -0.639406681060791, 0.4626493453979492 
246, 0.0422137975692749, -0.6599931716918945, 0.2047109603881836 
247, -0.10293781757354736, -0.46717405319213867, 0.04997730255126953 
248, -0.4069538712501526, -0.6207365989685059, -0.17059803009033203 
249, 0.19396543502807617, -0.625769853591919, 0.3835573196411133 
250, 1.0954110622406006, -0.694392204284668, 0.7926712036132812 
251, 1.4877607822418213, -0.39392709732055664, 0.3838329315185547 
252, 0.032074928283691406, -0.43712425231933594, 0.09198951721191406 
253, 0.20299464464187622, -0.22841882705688477, 0.5003499984741211 
254, 0.19738918542861938, 0.0005748271942138672, 0.44132041931152344 
255, 0.6096673011779785, 0.12767040729522705, 0.34752941131591797 
256, 0.816954493522644, 0.18067383766174316, 0.4694652557373047 
257, 1.0748755931854248, 0.2691817283630371, 1.1500978469848633 
258, 0.9239031672477722, 0.5066303014755249, 1.5094900131225586 
259, 0.9504948854446411, 0.7345767021179199, 1.473402976989746 
260, 0.8274524807929993, 0.7151641249656677, 2.856184959411621 
261, 1.1102328300476074, 0.4727345108985901, 3.2083587646484375 
262, 1.1440088748931885, 0.39865580201148987, 3.583479881286621 
263, 1.1515231132507324, 0.4409913122653961, 4.973024368286133 
264, 1.2255947589874268, 0.10613535344600677, 5.883091926574707 
265, 1.646697759628296, -0.2925136089324951, 6.334042549133301 
266, 1.8985190391540527, -0.6330445408821106, 6.746864318847656 
267, 1.8176946640014648, -0.46033233404159546, 6.739373207092285 
268, 1.6537222862243652, -0.1444135308265686, 6.581083297729492 
269, 1.447371244430542, 0.18212822079658508, 6.598860740661621 
270, 1.3361186981201172, 0.1368744969367981, 6.2212066650390625 
271, 0.912879228591919, 0.01509624719619751, 5.585850715637207 
272, 0.8425645232200623, -0.1824951171875, 5.099826812744141 
273, 0.9017698168754578, -0.14300251007080078, 4.578296661376953 
274, 0.8547381162643433, -0.5006259679794312, 4.624641418457031 
275, 0.7256748080253601, -0.867793083190918, 4.562829971313477 
276, 0.5974463224411011, -2.06451416015625, 2.6641387939453125 
277, 0.7770563364028931, -2.0599212646484375, 2.6888999938964844 
278, 0.774048924446106, -1.8328447341918945, 2.524782180786133 
279, 0.47361552715301514, -1.6320819854736328, 2.258333206176758 
280, 0.30523133277893066, -1.4002604484558105, 1.7683372497558594 
281, 0.18889451026916504, -2.168299674987793, 1.575821876525879 
282, 0.18512749671936035, -3.8904809951782227, 1.0432662963867188 
283, 0.18512749671936035, -3.8904809951782227, 1.0432662963867188 
284, 1.1334160566329956, -5.609119415283203, -0.6116847991943359 
285, 1.1140470504760742, -3.9634270668029785, -0.8186559677124023 
286, 0.5115370750427246, -2.435830593109131, 0.4456906318664551 
287, 1.6439802646636963, -2.1910696029663086, -0.5839171409606934 
288, 1.96429443359375, -3.0229721069335938, -1.621190071105957 
289, 0.751706063747406, -4.8094024658203125, -2.164950370788574 
290, -0.1335781216621399, -6.513873100280762, -2.365388870239258 
291, -0.3740313649177551, -7.633357048034668, -2.1912553310394287 
292, -1.9375717639923096, -5.893159866333008, -2.9101569652557373 
293, -3.0261356830596924, -3.373019218444824, -4.85746431350708 
294, -3.0113749504089355, -3.479694366455078, -4.424236297607422 
295, -1.120542287826538, -4.906935691833496, -8.686933517456055 
296, -1.0820482969284058, -4.936704635620117, -8.398201942443848 
297, 0.11644238233566284, -7.653411865234375, -5.333971977233887 
298, -1.5633797645568848, -6.26387882232666, -4.683222770690918 
299, -3.6279664039611816, -2.096364974975586, -3.3811168670654297 
300, -3.3580620288848877, 7.39060115814209, -1.546703577041626 
301, -1.4659674167633057, 12.922819137573242, -3.9066367149353027 
302, -3.6916370391845703, 3.7195444107055664, -1.2914741039276123 
303, 0.13059896230697632, -2.9122695922851562, 1.4484021663665771 
304, 2.8912932872772217, 1.3530855178833008, -0.2205207347869873 
305, 2.526416778564453, 5.329092979431152, -0.8274059295654297 
306, 0.438526451587677, 4.275437355041504, -1.086526870727539 
307, -0.46724778413772583, 0.39493751525878906, -0.5965263843536377 
308, -0.39402687549591064, -1.8713560104370117, -1.329805612564087 
309, -0.6777728796005249, -2.941617012023926, -1.6845886707305908 
310, -1.3404717445373535, -2.68300724029541, -0.8203449249267578 
311, -1.8514933586120605, -1.2667760848999023, 0.12240064144134521 
312, -1.8579860925674438, 1.4145841598510742, 0.04074370861053467 
313, -1.807997465133667, 1.418771743774414, 0.01117861270904541 
314, -1.1547297239303589, 0.6625881195068359, -0.05332636833190918 
315, -0.32549941539764404, -0.37596893310546875, -0.10638236999511719 
316, 0.10781717300415039, -0.5314750671386719, 0.11777782440185547 
317, 0.2974954843521118, -0.4004526138305664, 0.5475969314575195 
318, 0.535531759262085, -0.25328731536865234, 0.7171423435211182 
319, 0.4613538980484009, -0.03253746032714844, 0.5122017860412598 
320, 0.1348888874053955, 0.07106494903564453, 0.3909180164337158 
321, -0.17077171802520752, -0.11226367950439453, 0.3680708408355713 
322, -0.3932567834854126, -0.1606283187866211, 0.40311503410339355 
323, -0.47029733657836914, -0.16977500915527344, 0.24916768074035645 
324, -0.6533339023590088, -0.23528194427490234, -0.055982112884521484 
325, -0.7789880037307739, -0.20333099365234375, -0.46170568466186523 
326, -0.7582420110702515, -0.3216819763183594, -0.6860706806182861 
327, -0.609144926071167, -0.47538280487060547, -0.40359067916870117 
328, -0.561102032661438, -0.4934196472167969, -0.05145382881164551 
329, -0.7309754490852356, -0.37649059295654297, -0.24055242538452148 
330, -0.8859332203865051, -0.23883914947509766, -0.6069967746734619 
331, -0.9279067516326904, -0.49773502349853516, -0.9851102828979492 
332, -0.7582128047943115, -1.2809648513793945, -0.9461007118225098 
333, -0.7699721455574036, -1.2364320755004883, -1.0642180442810059 
334, -0.6454358100891113, -1.0094194412231445, -0.9970073699951172 
335, -0.5267458558082581, -0.46956634521484375, -0.660938024520874 
336, -0.2278023362159729, -0.32541942596435547, -0.5481429100036621 
337, -0.05058509111404419, -1.6271867752075195, -1.5643668174743652 
338, -0.5584513545036316, -1.7501535415649414, -1.6148741245269775 
339, -0.658528208732605, -1.443577766418457, -0.9104166030883789 
340, -0.572531521320343, -1.1700716018676758, -0.020652294158935547 
341, -0.4515576958656311, -0.6704282760620117, 0.09409809112548828 
342, -0.5199132561683655, -0.8202295303344727, -0.6947312355041504 
343, -0.29252082109451294, -1.4349088668823242, 0.2583026885986328 
344, 0.300468772649765, -1.4278793334960938, 0.3675212860107422 
345, 0.3815288841724396, -1.4203386306762695, -0.19864749908447266 
346, 0.25021401047706604, -0.7269043922424316, -0.8650321960449219 
347, 0.14447635412216187, -0.41806650161743164, -1.3278326988220215 
348, 0.14702174067497253, -0.7905178070068359, -1.1585044860839844 
349, -0.10101300477981567, -1.2374296188354492, -0.9279794692993164 
350, -0.7311652898788452, -1.4795069694519043, 0.0033664703369140625 
351, -0.8207741379737854, -0.6531991958618164, 0.6562089920043945 
352, 0.11875699460506439, 0.5280508995056152, -0.510223388671875 
353, 0.0032538920640945435, 0.6711611747741699, -0.648503303527832 
354, 0.3216794729232788, -1.0875167846679688, -1.3180170059204102 
355, 0.2850189208984375, -2.426893711090088, -1.2405757904052734 
356, 0.07902917265892029, -0.4566192626953125, 0.3918442726135254 
357, 0.4027175009250641, -0.1229104995727539, 0.11190223693847656 
358, 0.1978999376296997, -0.6507759094238281, 0.22723913192749023 
359, 0.20294612646102905, -1.0204987525939941, -0.2609977722167969 
360, 0.13603365421295166, -1.034627914428711, -0.6865415573120117 
361, -0.2607385516166687, -0.7534055709838867, -0.036192893981933594 
362, -0.45027250051498413, -0.6175971031188965, 0.16016864776611328 
363, -0.22441840171813965, -0.8442330360412598, 0.11877822875976562 
364, 0.768876850605011, -0.1141211986541748, 0.20072555541992188 
365, 0.48753345012664795, 0.020385265350341797, 0.2470541000366211 
366, 0.04969722032546997, 0.2118988037109375, 0.3983421325683594 
367, -0.29403454065322876, -0.28786301612854004, 0.7695350646972656 
368, 0.18849658966064453, -0.35616040229797363, 1.0167083740234375 
369, 0.9660090208053589, -0.19007515907287598, 0.9629478454589844 
370, 1.0936529636383057, 0.22190093994140625, 0.9343910217285156 
371, 0.49394237995147705, 0.035872578620910645, 0.33625316619873047 
372, 0.49248313903808594, 0.28162121772766113, 0.2873191833496094 
373, 0.3996542692184448, 0.0967097282409668, 0.9873628616333008 
374, 0.41179752349853516, 0.3634082078933716, 0.9449119567871094 
375, 0.7530398368835449, 0.718838632106781, 1.4062490463256836 
376, 0.9400352239608765, 0.19552582502365112, 3.2478208541870117 
377, 1.0202324390411377, -0.11522939801216125, 3.4853029251098633 
378, 0.9750828742980957, -0.16228774189949036, 3.8413209915161133 
379, 0.8318474292755127, -0.14075833559036255, 4.219696998596191 
380, 0.6190335750579834, -0.23865368962287903, 5.192073822021484 
381, 1.1942219734191895, -0.5105847716331482, 5.895777702331543 
382, 1.4524836540222168, -0.7865963578224182, 6.52101993560791 
383, 1.5318901538848877, -0.9638793468475342, 6.6281890869140625 
384, 1.5333175659179688, -1.0118844509124756, 6.715296745300293 
385, 1.387406349182129, -0.7444539666175842, 6.4580793380737305 
386, 0.9615169763565063, -0.711340606212616, 5.9930419921875 
387, 1.204025149345398, -0.8881205320358276, 5.744258880615234 
388, 1.1019269227981567, -0.7411667108535767, 5.427168846130371 
389, 0.9223136901855469, -0.9708144664764404, 4.624926567077637 
390, 0.8878811597824097, -0.9735589027404785, 4.243165016174316 
391, 0.7146599292755127, -1.1135870218276978, 4.283328056335449 
392, 0.3479956388473511, -0.8696527481079102, 4.369987487792969 
393, 0.3219794034957886, -1.3253850936889648, 4.461849212646484 
394, 0.42028069496154785, -1.2599570751190186, 4.307682037353516 
395, 0.7676582336425781, -1.5351505279541016, 3.9132490158081055 
396, 0.341546893119812, -1.832292079925537, 1.8408889770507812 
397, 0.48052525520324707, -1.6407408714294434, 1.4009637832641602 
398, 0.658922553062439, -1.6923251152038574, 1.5530595779418945 
399, 0.6232093572616577, -2.3773059844970703, 1.9031753540039062 
400, 0.7361679077148438, -3.1386213302612305, 1.682797908782959 
401, 0.587526798248291, -4.0615315437316895, 0.41896533966064453 
402, 0.8891926407814026, -3.3286795616149902, -3.1009092330932617 
403, -0.6429876089096069, -2.7415008544921875, -2.247459888458252 
404, -0.869936466217041, -3.5577430725097656, -1.294908046722412 
405, 0.6490532755851746, -5.311142921447754, -1.2192449569702148 
406, 1.5119006633758545, -6.894726753234863, -0.5910873413085938 
407, 1.486761450767517, -7.603781700134277, -0.6614551544189453 
408, -0.00775301456451416, -7.539311408996582, -3.3806633949279785 
409, -2.1359951496124268, -6.424285888671875, -5.321779251098633 
410, -3.799337863922119, -4.2644453048706055, -8.120939254760742 
411, -4.502737045288086, -3.229074478149414, -10.15066146850586 
412, -4.450100421905518, -3.2564477920532227, -9.946137428283691 
413, -3.6961617469787598, -6.97420597076416, -6.4960455894470215 
414, -1.368727684020996, -8.61487865447998, -3.055729389190674 
415, 0.757419228553772, -7.994089126586914, -1.9202263355255127 
416, 1.667255163192749, 1.2682485580444336, -0.48181843757629395 
417, 1.009889841079712, 8.123014450073242, 3.0349280834198 
418, 0.12283313274383545, 12.211535453796387, 0.9728684425354004 
419, -0.5987111330032349, 7.127036094665527, -2.376861810684204 
420, -3.147857904434204, -0.12740516662597656, 0.19038009643554688 
421, -4.617908477783203, -3.4240055084228516, 1.5939080715179443 
422, -0.9357166290283203, -2.0676498413085938, -0.4521207809448242 
423, 2.4804744720458984, 0.5221624374389648, -1.6259126663208008 
424, 2.6688766479492188, 2.1212968826293945, -1.2147507667541504 
425, 1.2737061977386475, 1.245497703552246, 0.3702054023742676 
426, 0.6317125558853149, -0.5310611724853516, 0.800055742263794 
427, 0.09054702520370483, -1.5404977798461914, 0.14869379997253418 
428, -0.44535112380981445, -1.4166107177734375, -0.22417497634887695 
429, -0.7154675722122192, -0.7131786346435547, 0.0679008960723877 
430, -0.8776892423629761, 0.012628555297851562, -0.04302072525024414 
431, -1.3424581289291382, -0.13549041748046875, 0.5191876888275146 
432, -1.3384361267089844, -0.12949562072753906, 0.4951019287109375 
433, -0.3505745530128479, -0.25516414642333984, 0.1245431900024414 
434, -0.32939356565475464, -0.24507522583007812, 0.09673118591308594 
435, 0.20562273263931274, -0.14077472686767578, 0.5121819972991943 
436, -0.14404338598251343, -0.24968719482421875, 0.6301209926605225 
437, -0.7995879054069519, -0.056049346923828125, 0.6632845401763916 
438, -1.091284155845642, 0.34494495391845703, 0.35886168479919434 
439, -1.0670017004013062, 0.3980216979980469, 0.1579751968383789 
440, -0.9031254053115845, -0.011066436767578125, 0.1017305850982666 
441, -0.532713770866394, -0.28716373443603516, 0.03450965881347656 
442, -0.11984515190124512, -0.35186100006103516, -0.33643245697021484 
443, 0.09185492992401123, -0.2990274429321289, -0.5404648780822754 
444, -0.00912940502166748, -0.18507671356201172, -0.506544828414917 
445, -0.3131234645843506, -0.2594938278198242, -0.4050619602203369 
446, -0.6350406408309937, -0.29378414154052734, -0.3676793575286865 
447, -0.690923810005188, -0.2697172164916992, -0.12528014183044434 
448, -0.5204062461853027, -0.30289363861083984, 0.019207239151000977 
449, -0.5093023777008057, -0.2593555450439453, -0.012088775634765625 
450, -0.6402866840362549, -0.06218433380126953, -0.12794995307922363 
451, -0.6043952703475952, -0.2840232849121094, -0.3849296569824219 
452, -0.6068471670150757, -0.2745065689086914, -0.41719818115234375 
453, -0.7242008447647095, -0.48885154724121094, -0.716027021408081 
454, -0.8052624464035034, -0.5262336730957031, -0.9148321151733398 
455, -0.6412752866744995, -0.9787349700927734, -1.318650722503662 
456, -0.7425394058227539, -1.3822832107543945, -1.212961196899414 
457, -0.7580564022064209, -1.3553552627563477, -0.5567078590393066 
458, -0.21627533435821533, -0.6285190582275391, -0.4005110263824463 
459, -0.21627533435821533, -0.6285190582275391, -0.4005110263824463 
460, -0.3930193781852722, -1.2517099380493164, -2.158168077468872 
461, -1.0668331384658813, -1.4805355072021484, -2.0839033126831055 
462, -1.2111670970916748, -1.3610963821411133, -0.8239448070526123 
463, -0.6851199865341187, -1.153517723083496, 0.39965248107910156 
464, -0.15695077180862427, -0.8150701522827148, 0.38915538787841797 
465, -0.15695077180862427, -0.8150701522827148, 0.38915538787841797 
466, -0.6088538765907288, -0.05131816864013672, -1.3898253440856934 
467, -0.9682616591453552, -0.4510650634765625, -2.1815171241760254 
468, -0.9335708022117615, -0.8601894378662109, -1.7872834205627441 
469, -0.5348098874092102, -0.9071931838989258, -0.7221698760986328 
470, 0.8607425689697266, -0.9150390625, 1.0275335311889648 
471, 0.8013169765472412, -0.7760896682739258, 0.8336296081542969 
472, 0.21748554706573486, -0.9811429977416992, -0.4364199638366699 
473, -1.0074301958084106, -1.2645998001098633, -1.3683137893676758 
474, -1.5694613456726074, -1.5706944465637207, -1.465691089630127 
475, -0.3872028887271881, 0.26233720779418945, 0.2960481643676758 
476, -0.4793352782726288, 0.4318966865539551, 0.11158084869384766 
477, 0.38540080189704895, 0.060302734375, -0.39881277084350586 
478, 0.013991370797157288, -1.390507698059082, -1.8206076622009277 
479, -0.6824471950531006, -2.8943777084350586, -1.6766366958618164 
480, -0.17340755462646484, -0.9057936668395996, -0.061537742614746094 
481, 0.27033838629722595, -0.6731805801391602, 0.6383347511291504 
482, 0.6366152167320251, -1.1579952239990234, 0.6171121597290039 
483, 0.9457418322563171, -1.4024786949157715, 0.4881601333618164 
484, 1.2921903133392334, -0.8558139801025391, 0.7111883163452148 
485, 0.8656620979309082, -0.7649126052856445, 0.6192483901977539 
486, 0.007750563323497772, -0.6032114028930664, -0.08660888671875 
487, -0.405365526676178, -0.06686115264892578, 0.007349967956542969 
488, -0.6761236786842346, 0.17580747604370117, 0.6100435256958008 
489, -0.3547205924987793, -0.028637170791625977, 0.7079372406005859 
490, 0.44940558075904846, -0.2519075870513916, 0.9478979110717773 
491, 0.6099629402160645, -0.15153098106384277, 0.959965705871582 
492, -0.056669652462005615, 0.16448402404785156, 0.7239408493041992 
493, -0.09803912043571472, 0.41253232955932617, 0.6459684371948242 
494, 0.09890025854110718, -0.06079840660095215, 0.9997682571411133 
495, 0.8104522824287415, -0.20491361618041992, 1.2480888366699219 
496, 1.2249433994293213, -0.14217281341552734, 1.2721757888793945 
497, 0.80489182472229, -0.1199347972869873, 0.7100000381469727 
498, 0.5737463235855103, -0.07182180881500244, 0.6345386505126953 
499, 0.3941592574119568, -0.0695810317993164, 0.641810417175293 
500, 0.48399102687835693, -0.24113547801971436, 0.8632469177246094 
501, 0.9119090437889099, -0.2803107500076294, 0.9342107772827148 
502, 0.919304370880127, -0.09527361392974854, 0.7976655960083008 
503, 0.7272782325744629, 0.1411474347114563, 1.3134136199951172 
504, 0.6536693572998047, 0.12338888645172119, 2.116532325744629 
505, 0.6751751899719238, -0.32877713441848755, 2.4430856704711914 
506, 0.6734340190887451, -0.1656244993209839, 3.019650459289551 
507, 0.8559662699699402, -0.13979864120483398, 3.768411636352539 
508, 1.1852657794952393, -0.6479559540748596, 5.373222351074219 
509, 1.153233528137207, -1.2198103666305542, 5.046308517456055 
510, 1.153233528137207, -1.2198103666305542, 5.046308517456055 
511, 1.193366527557373, -1.3275558948516846, 4.327978134155273 
512, 1.2218340635299683, -0.6949682831764221, 4.718079566955566 
513, 1.1461745500564575, -0.8625972867012024, 4.710344314575195 
514, 0.8760373592376709, -0.7378116250038147, 4.269479751586914 
515, 0.6199896335601807, -0.791702389717102, 3.3227853775024414 
516, 0.9673219919204712, -0.7912040948867798, 2.8683300018310547 
517, 0.987226128578186, -0.6633936166763306, 2.8665075302124023 
518, 0.8975887298583984, -0.9752411842346191, 2.915250778198242 
519, 0.8975887298583984, -0.9752411842346191, 2.915250778198242 
520, 0.2341926097869873, -0.9106228351593018, 2.7696123123168945 
521, 0.16684401035308838, -0.9842567443847656, 2.4860706329345703 
522, 0.15641677379608154, -0.9218418598175049, 2.5760040283203125 
523, 0.31559932231903076, -0.8730607032775879, 2.4706153869628906 
524, 0.49662864208221436, -0.7683510780334473, 2.609593391418457 
525, 0.5570783615112305, -0.8260464668273926, 2.5890188217163086 
526, 0.3910449743270874, -1.053062915802002, 2.454378128051758 
527, 0.021435856819152832, -1.1975140571594238, 2.636080741882324 
528, 0.02702462673187256, -1.5445866584777832, 2.7941460609436035 
529, -0.49192774295806885, -2.266986846923828, 3.0721206665039062 
530, -0.6410332918167114, -2.638974666595459, 2.990830421447754 
531, 0.20149987936019897, -0.44979286193847656, 2.3121867179870605 
532, 0.07683601975440979, 2.297422409057617, 1.7153630256652832 
533, 0.4772290289402008, 1.8858556747436523, 2.2222752571105957 
534, -0.8170180320739746, 0.03717517852783203, -4.597648620605469 
535, -0.650414764881134, -0.5805349349975586, -4.050644874572754 
536, 0.6681183576583862, -0.6455898284912109, -2.3282599449157715 
537, 1.5582871437072754, -3.7610559463500977, -0.6915900707244873 
538, 1.4036699533462524, -8.922384262084961, 0.17040586471557617 
539, -0.08290815353393555, -12.033002853393555, -2.100224018096924 
540, -0.33231955766677856, -11.176475524902344, -6.895491123199463 
541, -1.3525303602218628, -7.0734968185424805, -9.514976501464844 
542, -4.299594402313232, -5.643014907836914, -5.447450160980225 
543, -3.6539859771728516, -6.706657409667969, -3.63728666305542 
544, -1.0528205633163452, -8.164542198181152, -4.399192810058594 
545, 0.30877017974853516, -9.252582550048828, -4.055253505706787 
546, 0.47617971897125244, -9.079766273498535, -2.1735525131225586 
547, 0.4484764337539673, -8.322566032409668, -1.203125 
548, 0.9839795827865601, -8.22082805633545, -2.1403050422668457 
549, 1.1830209493637085, -8.118574142456055, -4.1160197257995605 
550, 2.028618574142456, -8.983867645263672, -1.9127833843231201 
551, 2.0263800621032715, -8.944201469421387, -1.915948748588562 
552, 2.470630407333374, -7.390685081481934, -1.102112054824829 
553, 0.5848138332366943, -1.4942569732666016, -2.353762149810791 
554, -2.121626853942871, 7.788881301879883, 1.3271938562393188 
555, -11.361178398132324, 29.870487213134766, 3.7174198627471924 
556, -1.6139507293701172, 16.187578201293945, 1.990515947341919 
557, 4.113068580627441, -3.463071823120117, 3.434523105621338 
558, -2.2663261890411377, -9.593496322631836, 6.389303207397461 
559, -0.9215894937515259, -7.736030578613281, 1.3793137073516846 
560, 3.100799798965454, 1.5757627487182617, -1.279447078704834 
561, -0.05189388990402222, 11.431468963623047, -0.6440627574920654 
562, -1.199055552482605, 9.605025291442871, 1.7442445755004883 
563, 1.3209537267684937, 2.0343017578125, 1.5051805973052979 
564, 2.186420202255249, -1.6338624954223633, -1.3305604457855225 
565, 0.3254651427268982, -2.888117790222168, -2.3348498344421387 
566, -2.0312752723693848, -3.1288766860961914, -1.015993356704712 
567, -3.6987483501434326, -4.900318145751953, 0.21682119369506836 
568, -3.233474016189575, -5.275511741638184, 0.2883317470550537 
569, -1.7635985612869263, -3.2931385040283203, -0.7204921245574951 
570, 0.14986348152160645, 1.2638273239135742, -1.541330337524414 
571, -0.09714651107788086, 1.1097803115844727, -1.5934207439422607 
572, -0.1024470329284668, 1.127406120300293, -1.6726572513580322 
573, -0.47410058975219727, -1.5055122375488281, -2.0655415058135986 
574, -0.4532105326652527, -1.6415672302246094, -1.521345615386963 
575, -0.48422688245773315, -1.6028423309326172, -1.629925012588501 
576, -0.606784462928772, -1.1764822006225586, -1.2748584747314453 
577, -1.236020565032959, -1.034764289855957, -1.3552601337432861 
578, -1.3470054864883423, -0.4981355667114258, -1.9831931591033936 
579, -1.428483486175537, -0.27665138244628906, -2.0400242805480957 
580, -1.3016858100891113, -0.07045555114746094, -0.789433479309082 
581, -0.44519931077957153, 0.48232364654541016, 0.7451705932617188 
582, 0.30795082449913025, 0.29543495178222656, -0.27776670455932617 
583, -0.3657021224498749, -1.0196781158447266, -1.9410343170166016 
584, -1.2869457006454468, -1.8859891891479492, -2.904238700866699 
585, -1.2904411554336548, -1.5235481262207031, -1.942845344543457 
586, -0.796127200126648, -0.7700128555297852, 0.21480846405029297 
587, -0.16264323890209198, -0.3911747932434082, 0.8289523124694824 
588, 0.043701231479644775, -0.7502717971801758, -0.32332563400268555 
589, -0.1317916363477707, -0.397092342376709, -1.0660123825073242 
590, -0.5497516989707947, 1.2168421745300293, -0.6000142097473145 
591, 0.07632365822792053, 0.17464017868041992, 0.5794520378112793 
592, 0.018696725368499756, 0.36529970169067383, 0.3605794906616211 
593, 0.7953392267227173, -2.2637181282043457, -0.3659954071044922 
594, 0.29288414120674133, -2.9763288497924805, -0.34960412979125977 
595, 0.8925386667251587, -0.13635778427124023, 0.026515960693359375 
596, 0.16693544387817383, -0.45155763626098633, 0.9543766975402832 
597, -0.5601934790611267, -1.3787789344787598, 0.3217506408691406 
598, -1.165633201599121, -1.8420500755310059, -0.19948577880859375 
599, -0.7364909648895264, -1.2905230522155762, -0.0745840072631836 
600, 0.4538944363594055, 0.044002532958984375, 0.5396928787231445 
601, 0.7190845608711243, 0.7116732597351074, 0.9893922805786133 
602, 0.08046293258666992, 0.21887779235839844, 1.2755918502807617 
603, -0.2988409399986267, -0.8330554962158203, 0.5283737182617188 
604, -0.13127893209457397, -0.8793604373931885, 1.0980501174926758 
605, 0.4943246841430664, -0.9293279647827148, 1.1049346923828125 
606, 1.1868410110473633, -0.6250510215759277, 1.0852432250976562 
607, 1.3772449493408203, 0.0029115676879882812, 1.1108312606811523 
608, 0.9325001239776611, 0.43584704399108887, 1.372696876525879 
609, -0.5924007892608643, -0.23781108856201172, 1.234980583190918 
610, -0.010821640491485596, -0.8904900550842285, 0.5771093368530273 
611, -0.02463066577911377, -0.6621385812759399, 0.5287818908691406 
612, 0.6075464487075806, -0.5421463251113892, 0.4853963851928711 
613, 0.7876181602478027, -0.061293721199035645, 0.7936286926269531 
614, 0.3315199613571167, 0.2754107713699341, 2.669523239135742 
615, 0.3477391004562378, 0.466621994972229, 2.6339569091796875 
616, 0.6971957683563232, -0.7097747921943665, 3.4628610610961914 
617, 1.1603045463562012, -0.8362191319465637, 3.987598419189453 
618, 1.2821996212005615, -0.43984055519104004, 5.068947792053223 
619, 0.7711735367774963, -0.6137436032295227, 5.54160213470459 
620, 0.6484297513961792, -0.37180042266845703, 6.188119888305664 
621, 0.5866047143936157, -0.41330206394195557, 6.396832466125488 
622, 0.5266783237457275, 0.015339553356170654, 6.1136674880981445 
623, 0.6549074649810791, 0.41463619470596313, 6.098898887634277 
624, 0.6720141172409058, 0.2563211917877197, 5.680742263793945 
625, 0.6787759065628052, 0.0070122480392456055, 5.0621232986450195 
626, 0.4962083101272583, -0.23209798336029053, 4.303601264953613 
627, 0.42971956729888916, -0.12165296077728271, 3.7142868041992188 
628, 0.59534752368927, 0.05189156532287598, 3.520700454711914 
629, 0.24568796157836914, -0.052010297775268555, 3.0072555541992188 
630, 0.21393263339996338, -0.4013237953186035, 3.098954200744629 
631, 0.22870278358459473, -0.7618374824523926, 2.8963842391967773 
632, 0.3656564950942993, -0.8140144348144531, 3.04384708404541 
633, 0.09971463680267334, -0.3556356430053711, 2.5076074600219727 
634, -0.03731811046600342, -0.7151064872741699, 2.1817407608032227 
635, -0.17795443534851074, -1.0986127853393555, 2.095226287841797 
636, -0.08175456523895264, -1.1267156600952148, 2.244403839111328 
637, -0.13171064853668213, -1.2123193740844727, 1.9571762084960938 
638, 0.300024151802063, -1.3733749389648438, 1.6399450302124023 
639, -0.5564483404159546, -1.478349208831787, 2.2446932792663574 
640, -0.7103252410888672, -0.8349943161010742, 1.993025779724121 
641, 0.004735410213470459, 0.5416631698608398, 2.6182026863098145 
642, 0.2589731216430664, 1.633976936340332, 3.5494484901428223 
643, 0.18300145864486694, 2.5155725479125977, 2.3368773460388184 
644, -0.12046574056148529, 1.7717676162719727, -0.08453083038330078 
645, -0.30234256386756897, 1.0508184432983398, -2.1146178245544434 
646, 1.8080048561096191, 2.2157115936279297, -3.0844802856445312 
647, 2.929903745651245, 0.4660634994506836, -1.733628749847412 
648, 3.0158472061157227, 0.3518962860107422, -1.3999183177947998 
649, 0.07044953107833862, -12.739582061767578, -2.638819456100464 
650, -0.05211156606674194, -12.813014030456543, -2.2207391262054443 
651, -3.009232759475708, -8.236519813537598, -7.06223726272583 
652, -2.997584581375122, -8.246003150939941, -6.823411464691162 
653, -4.9136061668396, -4.425202369689941, -5.269534587860107 
654, 0.384067177772522, -7.3405656814575195, -3.149384021759033 
655, 2.31857967376709, -9.667165756225586, -4.05604362487793 
656, 2.3607845306396484, -9.623527526855469, -4.030904769897461 
657, 1.3394185304641724, -9.793685913085938, -2.931715965270996 
658, 0.4244729280471802, -8.399115562438965, -1.847144603729248 
659, 0.0381237268447876, -7.848865509033203, -2.0915608406066895 
660, -0.05977749824523926, -7.930130958557129, -2.38555645942688 
661, 0.2038593292236328, -7.703667640686035, -2.284911870956421 
662, 0.7409710884094238, -7.3581132888793945, -2.8196139335632324 
663, 0.6287825107574463, -4.881092071533203, -2.9793848991394043 
664, -0.8444886803627014, 0.3267240524291992, -3.596731662750244 
665, -2.683931827545166, 8.882513046264648, -0.6332616806030273 
666, -5.109312534332275, 19.23888397216797, -0.8327507972717285 
667, -10.212899208068848, 21.61993408203125, 1.6613664627075195 
668, -1.7323102951049805, 13.63277816772461, 3.428597927093506 
669, -1.7323102951049805, 13.63277816772461, 3.428597927093506 
670, -1.2244700193405151, -3.491457939147949, 3.9345479011535645 
671, -1.0628068447113037, -3.4208335876464844, 3.819072723388672 
672, 1.4400132894515991, 4.025413513183594, 0.5720510482788086 
673, -1.837083339691162, 4.2587385177612305, 0.831784725189209 
674, -0.05841943621635437, 0.5719938278198242, 1.193758487701416 
675, 1.2591394186019897, -1.3060531616210938, -0.1610431671142578 
676, 1.0747060775756836, -2.897520065307617, -0.49892711639404297 
677, 0.09352055191993713, -3.6277847290039062, 0.664128303527832 
678, -0.62253737449646, -3.1130008697509766, 0.8472390174865723 
679, -0.3215467929840088, -2.009099006652832, -0.4383363723754883 
680, -0.12814369797706604, -1.171525001525879, -1.4231481552124023 
681, -0.19633042812347412, -0.5176630020141602, -1.8691868782043457 
682, -0.12175242602825165, -0.03712654113769531, -1.9650139808654785 
683, -0.24104206264019012, 0.07637500762939453, -2.141974925994873 
684, -0.999110221862793, 0.008769989013671875, -2.330806255340576 
685, -1.7101534605026245, 0.0032596588134765625, -1.5299553871154785 
686, -1.5020970106124878, -0.2314453125, -0.9748444557189941 
687, -0.5773224234580994, -0.9144911766052246, -0.9820408821105957 
688, 0.2370946705341339, -1.5559258460998535, -1.1250801086425781 
689, -0.307094007730484, -0.8001933097839355, -0.7914028167724609 
690, -0.34332141280174255, -0.6676034927368164, -0.9532804489135742 
691, -1.298965573310852, -0.0861506462097168, -1.0244522094726562 
692, -1.3803014755249023, 0.3824453353881836, -0.5959148406982422 
693, -1.1303367614746094, 0.6066422462463379, -0.47238922119140625 
694, -0.046150416135787964, 0.4451150894165039, -0.5469985008239746 
695, 1.4940860271453857, -1.4813518524169922, -0.8335723876953125 
696, 0.7731456160545349, -1.3917994499206543, -1.0228066444396973 
697, -0.33999767899513245, -1.206697940826416, -0.7063808441162109 
698, -1.5465309619903564, -1.3071284294128418, 0.38379335403442383 
699, -1.6532151699066162, -0.9787120819091797, 0.8448939323425293 
700, -0.6480149030685425, -0.7868523597717285, 0.13444852828979492 
701, 0.05416291952133179, -0.6181068420410156, -0.311769962310791 
702, 0.23088893294334412, -0.810943603515625, -0.7473564147949219 
703, 0.03246825933456421, -0.9034476280212402, 0.12341976165771484 
704, 0.40372180938720703, -0.4565458297729492, 0.7872190475463867 
705, 0.934132993221283, -0.5826826095581055, 0.6166934967041016 
706, 0.7970585227012634, -0.8993234634399414, 0.627202033996582 
707, 0.42344552278518677, -0.5146584510803223, 0.4967517852783203 
708, 0.04034709930419922, -0.26740527153015137, 0.24277210235595703 
709, -0.18014895915985107, -0.29551053047180176, 0.32536792755126953 
710, 0.5620694160461426, -0.21988987922668457, 0.8129348754882812 
711, 0.4941338896751404, -0.020792722702026367, 0.7422981262207031 
712, 0.7654475569725037, -0.13769745826721191, 0.9015979766845703 
713, 1.0166070461273193, 0.017724275588989258, 0.6233396530151367 
714, 0.10689437389373779, -0.15552663803100586, -0.35356712341308594 
715, -0.029166460037231445, 0.5296907424926758, 0.7320785522460938 
716, 0.41196465492248535, 0.0883476734161377, 0.8581123352050781 
717, 0.8594844341278076, -0.10321128368377686, 0.8540544509887695 
718, 0.9289116859436035, -0.22204387187957764, 0.8168230056762695 
719, 0.7375215291976929, -0.15233933925628662, 0.5931644439697266 
720, 0.32256317138671875, 0.08592104911804199, 0.6226434707641602 
721, 0.006574749946594238, 0.2410702109336853, 1.1526641845703125 
722, -0.05479097366333008, 0.2703668475151062, 1.3793716430664062 
723, 0.005393505096435547, 0.47823238372802734, 1.4940738677978516 
724, 0.28179919719696045, 0.6968188285827637, 1.6489877700805664 
725, 0.5043729543685913, 0.8853369951248169, 1.9202213287353516 
726, 0.25028181076049805, 0.9283531904220581, 2.383573532104492 
727, 0.18667995929718018, 0.6506519317626953, 2.6756038665771484 
728, 0.45802009105682373, 0.4335663914680481, 2.9118127822875977 
729, 0.6228705644607544, 0.47294968366622925, 3.931547164916992 
730, 0.6113440990447998, 0.553821861743927, 4.928632736206055 
731, 0.5989328622817993, 0.5824716091156006, 4.910061836242676 
732, 0.6818325519561768, -0.08565028011798859, 5.53959846496582 
733, 1.088507890701294, -0.6902221441268921, 5.879582405090332 
734, 1.2860666513442993, -0.9546735286712646, 5.072531700134277 
735, 1.0039509534835815, -0.8539226651191711, 5.032647132873535 
736, 1.2894370555877686, -1.0376330614089966, 4.899994850158691 
737, 1.3794939517974854, -1.2955929040908813, 4.180829048156738 
738, 0.9152582883834839, -1.244311809539795, 3.718935012817383 
739, 0.6368721723556519, -1.0904440879821777, 3.344583511352539 
740, 0.328025221824646, -1.4008502960205078, 2.9288434982299805 
741, 0.6381165981292725, -1.8071368932724, 2.8190555572509766 
742, 1.152449607849121, -1.952121615409851, 3.014920234680176 
743, 1.0478545427322388, -1.917067289352417, 3.329188346862793 
744, 0.820874810218811, -2.2900495529174805, 3.9042415618896484 
745, 0.9391380548477173, -2.3558270931243896, 4.055790901184082 
746, 1.109181523323059, -1.697265863418579, 4.043251037597656 
747, 1.037644863128662, -0.2524099349975586, 3.932765007019043 
748, 0.7068140506744385, 0.6396727561950684, 4.217432975769043 
749, 0.3456535339355469, -0.020511150360107422, 3.707460403442383 
750, -1.2535765171051025, -1.4854717254638672, 1.7611217498779297 
751, -1.0547947883605957, -1.9423112869262695, 2.080958366394043 
752, -0.6732280254364014, -0.668677806854248, 1.0591764450073242 
753, -1.8859941959381104, 5.945249557495117, 0.8170022964477539 
754, -1.1320139169692993, 5.695158004760742, -1.6137585639953613 
755, -0.506860613822937, 4.853075981140137, -3.0200767517089844 
756, -1.3942244052886963, 2.0000457763671875, -4.184573650360107 
757, -0.264873206615448, -3.7947044372558594, -2.4434280395507812 
758, 2.098689079284668, -9.997676849365234, 2.0473403930664062 
759, 2.802091598510742, -13.384711265563965, 1.9501841068267822 
760, 3.704746961593628, -13.457955360412598, -4.449648857116699 
761, 2.473602294921875, -10.74582576751709, -9.58668041229248 
762, -1.2950897216796875, -5.907326698303223, -8.994454383850098 
763, -5.892082214355469, -2.8531646728515625, -3.6431562900543213 
764, -4.841730117797852, -3.906857490539551, -1.6501762866973877 
765, -0.12258899211883545, -6.592735290527344, -4.930495262145996 
766, 1.4023067951202393, -9.205962181091309, -6.327901840209961 
767, 1.8566198348999023, -10.357572555541992, -4.885770797729492 
768, 0.911786675453186, -10.07621955871582, -1.8365449905395508 
769, 1.0285956859588623, -9.37974739074707, -1.317781686782837 
770, 1.0269742012023926, -9.353049278259277, -1.2548677921295166 
771, 1.3563368320465088, -8.868683815002441, -1.2061456441879272 
772, 1.0543599128723145, -8.309576988220215, -1.730229139328003 
773, 0.33434849977493286, -8.034204483032227, -3.113302707672119 
774, 0.7305120825767517, -7.351594924926758, -3.046947956085205 
775, 1.582261562347412, -6.74222469329834, -3.6684296131134033 
776, 1.6737805604934692, -6.20489501953125, -3.217933416366577 
777, 0.6364295482635498, -3.9227380752563477, -2.7587907314300537 
778, -2.3260176181793213, 1.435441017150879, -3.4207515716552734 
779, -4.572879314422607, 12.619181632995605, 2.6353671550750732 
780, -9.793505668640137, 29.837440490722656, 12.21654987335205 
781, -7.178623676300049, 24.13064956665039, 7.888715744018555 
782, 5.152845859527588, -0.7996110916137695, -1.8717408180236816 
783, -3.1305835247039795, -12.948283195495605, 1.9906268119812012 
784, 1.9120585918426514, -6.180973052978516, 10.529088973999023 
785, 3.3918590545654297, 10.525444984436035, 4.4709625244140625 
786, -2.7755212783813477, 20.086212158203125, 1.5535063743591309 
787, -1.364405632019043, 8.421727180480957, 2.9564671516418457 
788, 2.5177154541015625, -1.2592344284057617, 2.2609128952026367 
789, 2.0972790718078613, -0.6650199890136719, 0.45333290100097656 
790, 0.33956968784332275, -0.8357419967651367, -0.9376568794250488 
791, -1.5665178298950195, -2.470541000366211, 0.8057379722595215 
792, -2.1714189052581787, -2.62874698638916, -0.4846320152282715 
793, -2.1295864582061768, -2.688725471496582, -0.3147890567779541 
794, 0.11325979232788086, -1.048828125, -2.5908203125 
795, 0.798948347568512, -0.8817338943481445, -0.2914242744445801 
796, 0.6677742004394531, -1.22119140625, 0.3148312568664551 
797, 0.5510178804397583, -1.4223699569702148, -0.12023687362670898 
798, 0.7126192450523376, -1.3317327499389648, -0.2774941921234131 
799, 0.7530885338783264, -1.1435613632202148, -0.6477863788604736 
800, 0.6229389309883118, -0.8212862014770508, -0.7137866020202637 
801, 0.3502689003944397, -0.4012422561645508, -0.5618462562561035 
802, -0.4808787703514099, 0.022726058959960938, 0.06919097900390625 
803, -1.0572445392608643, 0.4102602005004883, 0.9563210010528564 
804, -0.8229551911354065, 0.739593505859375, 1.2103972434997559 
805, -0.12847870588302612, 1.0633621215820312, 1.0944058895111084 
806, 0.4079548716545105, 1.225870132446289, 0.8267295360565186 
807, 0.6914139986038208, 1.0376262664794922, 0.4636251926422119 
808, 0.8384538888931274, 0.6904001235961914, 0.23686742782592773 
809, 0.7351874709129333, 0.4552440643310547, -0.034096479415893555 
810, 0.23190629482269287, 0.1782541275024414, -0.364208459854126 
811, 0.26110386848449707, 0.15086650848388672, -0.27254581451416016 
812, -0.1449739933013916, 0.12261581420898438, -0.4024198055267334 
813, -0.3744264841079712, 0.20905494689941406, -0.35497236251831055 
814, -0.22401249408721924, 1.0733671188354492, -2.721087694168091 
815, -1.0338016748428345, 0.1879138946533203, -2.009990692138672 
816, -0.7827258110046387, -1.002852439880371, 6.691285133361816 
817, -0.4836540222167969, -0.6231508255004883, -1.3516361713409424 
818, 0.012989521026611328, 0.796269416809082, -5.075341701507568 
819, -1.1722314357757568, 1.0624971389770508, 1.0423619747161865 
820, -0.696707010269165, -0.7309722900390625, -1.5335466861724854 
821, -0.028063654899597168, -2.1567201614379883, -1.252305269241333 
822, -0.3286712169647217, -0.5934000015258789, -1.0142383575439453 
823, -0.023345589637756348, -0.0026063919067382812, -1.02638840675354 
824, 0.24557626247406006, 0.2815885543823242, -0.2576727867126465 
825, 1.5135407447814941, -0.17981338500976562, 0.670433759689331 
826, 0.6054928302764893, 0.08786201477050781, -0.6805613040924072 
827, -0.2137390375137329, 0.22406959533691406, -0.9805532693862915 
828, -0.44338011741638184, -0.019806861877441406, -0.37743186950683594 
829, 0.2861241102218628, -1.2396039962768555, 1.755277395248413 
830, -1.1598562002182007, 3.8193492889404297, -1.3661563396453857 
831, -1.1333452463150024, 3.8044090270996094, -1.3434547185897827 
832, -0.9091625213623047, 0.24921321868896484, 1.0269017219543457 
833, -0.8950594663619995, 0.2613811492919922, 0.9650462865829468 
834, -0.057465553283691406, -1.5988922119140625, 1.1507877111434937 
835, 0.5864968299865723, -2.76241397857666, 0.7927552461624146 
836, -0.17045700550079346, -0.2584867477416992, -0.02311253547668457 
837, -0.7102524042129517, 0.7652750015258789, -0.022343873977661133 
838, -1.900397777557373, 1.5874881744384766, -0.06931471824645996 
839, -2.1536197662353516, 0.07482242584228516, -0.21197056770324707 
840, -4.574445724487305, 0.40126991271972656, -1.8126084804534912 
841, -1.8963340520858765, -3.9587793350219727, -4.9091339111328125 
842, 6.853240013122559, -14.1476411819458, 14.17404556274414 
843, 1.4507484436035156, 4.4734954833984375, -6.13080358505249 
844, -2.8832595348358154, 12.848539352416992, -0.6444213390350342 
845, -1.6088879108428955, 5.056013107299805, 4.6345977783203125 
846, -8.278539657592773, 6.044889450073242, 3.8589906692504883 
847, -8.36652946472168, 6.191925048828125, -1.0454609394073486 
848, -6.994309425354004, 4.902870178222656, -4.685659408569336 
849, -2.555196523666382, 5.420330047607422, -2.267399311065674 
850, -2.9107720851898193, -1.1618804931640625, -2.231274366378784 
851, -3.2275493144989014, -1.1557807922363281, -2.267261505126953 
852, -0.7092036008834839, -1.9997215270996094, -1.590411901473999 
853, 2.1504158973693848, 2.6840410232543945, 0.7055497169494629 
854, 0.8012769818305969, -0.6328601837158203, 0.5088965892791748 
855, 1.6195347309112549, -1.4643230438232422, 1.602612018585205 
856, 3.397695779800415, 4.3407745361328125, 2.114631414413452 
857, 3.5288844108581543, 1.0783920288085938, 1.4032691717147827 
858, 3.5288844108581543, 1.0783920288085938, 1.4032691717147827 
859, 1.5179284811019897, -1.0612058639526367, 4.434584617614746 
860, 2.2616446018218994, -1.369521141052246, 7.580415725708008 
861, 3.263594627380371, 2.8278379440307617, 2.5951201915740967 
862, 5.918857574462891, 4.316819190979004, 1.195004940032959 
863, 3.789165496826172, 2.102053642272949, -3.192565679550171 
864, 1.9046049118041992, -4.139900207519531, 12.328641891479492 
865, 2.115971088409424, -2.070413589477539, 4.109951972961426 
866, 2.761500597000122, -3.278339385986328, -2.98160982131958 
867, 2.761500597000122, -3.278339385986328, -2.98160982131958 
868, -0.21180808544158936, -3.3546676635742188, 2.785872459411621 
869, -0.21180808544158936, -3.3546676635742188, 2.785872459411621 
870, -2.0165138244628906, -4.377789497375488, 1.62921142578125 
871, -2.5199344158172607, -4.098108291625977, 1.8147945404052734 
872, -4.631324768066406, -2.769515037536621, 4.7615509033203125 
873, -5.205887794494629, -2.496396064758301, 4.692051410675049 
874, -7.8284149169921875, 5.1638312339782715, 3.3945069313049316 
875, -2.2350406646728516, -3.623143196105957, -2.973748207092285 
876, -1.3673157691955566, -5.118945121765137, -0.7948431968688965 
877, -2.6891016960144043, -2.546513080596924, 7.433601379394531 
878, -2.5760083198547363, -0.24873924255371094, 4.1976165771484375 
879, -1.3944573402404785, -2.1141433715820312, 4.497866630554199 
880, -1.302945613861084, -2.0648670196533203, 1.4077072143554688 
881, -2.9795522689819336, -1.572556972503662, 1.6308550834655762 
882, -3.0707106590270996, -1.1728544235229492, 2.297482490539551 
883, -1.0263800621032715, -0.45116567611694336, 0.38924503326416016 
884, 2.3498291969299316, 0.42198705673217773, -1.6907707452774048 
885, 4.672592639923096, 1.7559561729431152, -4.78175687789917 
886, 4.511309623718262, 1.880190372467041, -6.472409725189209 
887, 4.510920524597168, 1.3423733711242676, -6.815350532531738 
888, 6.610446453094482, 1.7140779495239258, 1.0803112983703613 
889, 3.0976200103759766, 2.0253939628601074, -3.1494994163513184 
890, 3.0710220336914062, 2.044489860534668, -3.1768040657043457 
891, 1.9201335906982422, 1.8688464164733887, -1.9563747644424438 
892, 2.063150405883789, 2.152710437774658, -3.4586434364318848 
893, 1.134228229522705, 1.4796810150146484, -5.18707799911499 
894, -1.701949119567871, -0.6300482749938965, -2.7493808269500732 
895, -2.307620048522949, -1.839951992034912, -1.1717584133148193 
896, -2.688727855682373, -2.1946258544921875, 0.4711604118347168 
897, -1.0405445098876953, -0.7123537063598633, 0.07609844207763672 
898, -0.7949867248535156, -0.28905248641967773, -0.14231038093566895 
899, -1.076375961303711, -0.8518562316894531, 0.08629322052001953 
900, -2.8804030418395996, -1.6244945526123047, 2.284724235534668 
901, -3.119748115539551, -2.2609171867370605, 3.366518974304199 
902, -1.882901668548584, -3.295246124267578, 2.541881561279297 
903, 0.5342202186584473, -3.238804817199707, 1.4996366500854492 
904, 3.934264659881592, -0.8970217704772949, 0.5579714775085449 
905, 6.056825160980225, 0.5557918548583984, -0.493194580078125 
906, 5.429006576538086, 0.40917158126831055, -1.5652318000793457 
907, 3.0607566833496094, 1.3326754570007324, -3.3242454528808594 
908, 0.935631275177002, -0.7062411308288574, -1.763235092163086 
909, 1.5641465187072754, 0.08360862731933594, -0.9457287788391113 
910, 2.1051974296569824, 0.19814538955688477, -1.3402729034423828 
911, 0.40282487869262695, 1.5891366004943848, -2.04526424407959 
912, -1.5951175689697266, 0.8056037425994873, -1.7280645370483398 
913, -0.1826462745666504, 0.4150223731994629, -1.533029556274414 
914, -0.25577688217163086, -0.4825108051300049, -2.374405860900879 
915, -0.24373245239257812, -1.0549964904785156, -2.1799545288085938 
916, 0.6058459281921387, -1.2335326671600342, -0.9700679779052734 
917, 1.3551459312438965, -0.7727761268615723, 0.7970981597900391 
918, 1.7721843719482422, -0.46102356910705566, 0.5869522094726562 
919, 2.2733383178710938, -0.30318713188171387, -1.4385757446289062 
920, 1.8218071460723877, -0.11870098114013672, -1.298417091369629 
921, -0.4720783233642578, -0.8551636934280396, 3.6026220321655273 
922, -0.4720783233642578, -0.8551636934280396, 3.6026220321655273 
923, 0.15044498443603516, 0.44250649213790894, -0.48856449127197266 
924, 2.781367540359497, 3.044478416442871, -2.1448755264282227 
925, 3.308530807495117, 1.1007158756256104, 2.0631332397460938 
926, -0.007129788398742676, -1.678300142288208, 6.030692100524902 
927, -1.6716687679290771, -2.1508445739746094, 3.4710912704467773 
928, -2.044820785522461, -1.3600709438323975, -2.258411407470703 
929, -1.7966599464416504, -1.594835877418518, -2.2475404739379883 
930, 0.46999627351760864, 0.5731627941131592, 0.7033004760742188 
931, 0.6850811839103699, 0.46687817573547363, 0.6985492706298828 
932, 2.6030001640319824, 0.6727159023284912, 0.4193534851074219 
933, 1.225176453590393, 0.1660294532775879, -0.4745607376098633 
934, -0.6411284804344177, 0.44929003715515137, -2.1223039627075195 
935, 0.519669234752655, -0.3891639709472656, 1.292612075805664 
936, -0.6365481615066528, -0.414400577545166, 1.8672103881835938 
937, -1.3315610885620117, 0.08371210098266602, 0.10110187530517578 
938, -0.5356130599975586, 0.1705489158630371, -0.6916818618774414 
939, 1.3226258754730225, 0.15758371353149414, -0.9402914047241211 
940, 1.1462877988815308, 0.6191606521606445, -1.4791507720947266 
941, 0.4207969903945923, 0.24152588844299316, -0.9965047836303711 
942, -0.40198349952697754, -0.7260615825653076, 0.8339805603027344 
943, -0.32940924167633057, -1.0771772861480713, 1.7845020294189453 
944, 0.8659707307815552, -0.8094351291656494, 1.481612205505371 
945, 0.7688063383102417, -0.22104620933532715, 0.9955911636352539 
946, 0.4175093173980713, -0.7142848968505859, 0.5946559906005859 
947, 1.2677515745162964, -0.8403077125549316, 0.8320837020874023 
948, 0.14342153072357178, -0.5706274509429932, -0.7280178070068359 
949, 0.1832796335220337, -0.5647408962249756, -0.718937873840332 
950, 1.7810593843460083, -0.7611417770385742, 3.4081668853759766 
951, 0.6387085914611816, -1.1624031066894531, 0.7589960098266602 
952, 0.9188352823257446, -0.5372912883758545, -0.17478466033935547 
953, 0.9998031854629517, -0.2105114459991455, -0.8753805160522461 
954, 0.7253625392913818, -0.4143538475036621, -3.7835779190063477 
955, 0.4368191957473755, 0.3043484687805176, -2.8666296005249023 
956, 2.35835599899292, 0.19908595085144043, 0.9748916625976562 
957, 2.384589195251465, -0.05769085884094238, 2.8506364822387695 
958, 0.6497577428817749, -0.39991259574890137, 0.3045663833618164 
959, -0.18324387073516846, -0.31655192375183105, -1.1905431747436523 
960, 0.6469428539276123, 0.23850059509277344, -1.503204345703125 
961, 1.352583646774292, 0.7947521209716797, -1.8656425476074219 
962, 1.4436365365982056, 0.5044686794281006, -1.1729907989501953 
963, 1.34817636013031, 0.19290995597839355, 0.010169029235839844 
964, 1.3466796875, 0.1382448673248291, 1.9511213302612305 
965, 0.5207918286323547, -0.28136396408081055, 0.9109315872192383 
