#Measurement, Acceleration X, Acceleration Y, Acceleration Z 
1, 0, 0, 0 
2, 0.28441381454467773, -0.7751734256744385, -0.8974007368087769 
3, -0.32112860679626465, 7.050395965576172, 1.534024953842163 
4, 1.0645391941070557, 14.235543251037598, -6.156546592712402 
5, -0.2864210605621338, 15.206245422363281, -7.677939414978027 
6, 2.4153687953948975, 12.87396240234375, 4.537136077880859 
7, 0.30600714683532715, -2.2528791427612305, 3.811537742614746 
8, 1.1655001640319824, -2.40212345123291, 0.9568970203399658 
9, 0.6247944831848145, -2.840557098388672, -6.634563446044922 
10, -0.46548008918762207, -3.996249198913574, -2.9430227279663086 
11, -1.3278083801269531, -2.5600662231445312, -1.111777663230896 
12, -1.8845503330230713, -1.7415924072265625, 4.5351176261901855 
13, 1.0855412483215332, -2.608722686767578, 0.17687606811523438 
14, 1.963364601135254, -4.50724983215332, -0.8015550971031189 
15, 1.7666277885437012, -3.0252199172973633, 1.0137534141540527 
16, 1.109919548034668, -4.3249359130859375, 3.844863176345825 
17, -4.723754405975342, -10.552584648132324, 1.3119311332702637 
18, -0.7947783470153809, -0.6840076446533203, -3.1353402137756348 
19, 0.5849789381027222, 2.941460609436035, 0.012822508811950684 
20, -0.8765255212783813, 5.192996978759766, -2.104276657104492 
21, 0.5013415813446045, 4.137205123901367, 2.5164852142333984 
22, -2.939415693283081, 1.0245723724365234, 1.5587430000305176 
23, -3.462285041809082, -2.7553300857543945, 0.39604949951171875 
24, -2.066448211669922, -3.753021240234375, 4.514268398284912 
25, -1.0410778522491455, -0.7016086578369141, -0.8912817239761353 
26, 8.875089645385742, 24.77235221862793, -1.980121374130249 
27, 2.4888103008270264, 2.1081485748291016, -1.2519742250442505 
28, -0.3890397250652313, -1.4121208190917969, 0.301596999168396 
29, -0.5401687622070312, 0.2117748260498047, 0.2619842290878296 
30, -1.2580153942108154, -0.4571809768676758, 0.27129125595092773 
31, -1.4890278577804565, -0.9555826187133789, 0.24957036972045898 
32, -1.0347766876220703, 0.7029933929443359, 0.48304569721221924 
33, -2.1307146549224854, -0.6038103103637695, -0.09842348098754883 
34, -0.9685084819793701, 0.14542007446289062, -0.8478120565414429 
35, -1.8738752603530884, -2.0160093307495117, 0.2887289524078369 
36, -3.1421165466308594, -2.9709091186523438, 0.11902737617492676 
37, -3.1421165466308594, -2.9709091186523438, 0.11902737617492676 
38, -2.9681107997894287, 0.3711128234863281, -1.8082926273345947 
39, -2.0818660259246826, 0.9344158172607422, -1.7848501205444336 
40, -1.7413723468780518, 0.49286365509033203, 0.03743386268615723 
41, -0.05441960319876671, 0.3833179473876953, 0.7549428939819336 
42, 1.3818968534469604, 0.46144866943359375, -1.2506678104400635 
43, 3.541921854019165, 0.9658832550048828, -4.864110946655273 
44, 1.5851339101791382, 1.0515384674072266, -2.564487934112549 
45, -0.22545714676380157, -0.22973251342773438, 0.033359646797180176 
46, -0.10563357174396515, -1.279057502746582, -0.4681975841522217 
47, 0.5591322183609009, -1.2762718200683594, -1.4055885076522827 
48, 1.0381664037704468, -0.7287826538085938, -1.0445891618728638 
49, 1.7208195924758911, -0.021961212158203125, -0.6881577968597412 
50, 2.0311124324798584, 0.07172679901123047, -0.9450527429580688 
51, 1.277111530303955, -0.020349502563476562, -0.6909557580947876 
52, 0.45373544096946716, -0.5971050262451172, -0.2167583703994751 
53, 0.11112266778945923, -0.8418407440185547, -0.0675286054611206 
54, 0.0323452353477478, -0.6097164154052734, 0.2351003885269165 
55, 0.1279314160346985, -0.6438560485839844, 0.07335305213928223 
56, 0.0275193452835083, -0.8073177337646484, -0.5644477605819702 
57, 0.053699493408203125, -0.738011360168457, -1.2081029415130615 
58, -0.37537163496017456, -0.777714729309082, -1.0161004066467285 
59, -0.38569843769073486, -1.1341285705566406, -0.8183014392852783 
60, -0.3139263987541199, -1.178563117980957, -0.5778672695159912 
61, -0.3973817229270935, -0.8610553741455078, -0.0604557991027832 
62, -0.25707513093948364, -0.9201774597167969, 0.035112857818603516 
63, -0.19673997163772583, -1.069528579711914, -0.6524994373321533 
64, -0.7012853026390076, -1.0453062057495117, -1.4597797393798828 
65, -1.3169610500335693, -0.9782352447509766, -1.414339542388916 
66, -1.5259712934494019, -1.1639041900634766, -0.4359927177429199 
67, -0.8485450744628906, -1.543229103088379, 0.41081905364990234 
68, 0.02547276020050049, -1.8171749114990234, 0.29785656929016113 
69, 0.18378734588623047, -2.2141942977905273, -0.817101001739502 
70, 0.013340353965759277, -2.425313949584961, -1.6237998008728027 
71, -0.34323716163635254, -2.351602554321289, -1.6069083213806152 
72, 0.16544324159622192, -2.1395187377929688, -0.08981609344482422 
73, 0.8180128931999207, -1.8919248580932617, 1.017655849456787 
74, 0.308236300945282, -0.9225406646728516, 0.1196908950805664 
75, -0.7317972183227539, -0.6472005844116211, -1.3215703964233398 
76, -1.3747003078460693, -1.5987448692321777, -1.4177193641662598 
77, -1.5737276077270508, -2.248178482055664, -0.2948575019836426 
78, 0.10851401090621948, -3.0797815322875977, -1.7382774353027344 
79, 0.11625432968139648, -2.7990455627441406, -1.98736572265625 
80, 0.23567670583724976, -2.4834775924682617, -2.213454246520996 
81, 0.4299590587615967, -1.3299975395202637, -1.5104331970214844 
82, 0.7613677382469177, 0.0686187744140625, -0.4225940704345703 
83, 0.5886383652687073, -1.1464314460754395, -2.051048755645752 
84, -0.7108080387115479, -2.2203545570373535, -3.2913880348205566 
85, -1.1487282514572144, -2.082158088684082, -1.8960866928100586 
86, -0.2710050940513611, -1.5732073783874512, -0.8762540817260742 
87, 1.1385321617126465, -0.8415307998657227, -0.07188987731933594 
88, 1.8171719312667847, -0.6867337226867676, -0.08915328979492188 
89, 1.282628059387207, -0.7884678840637207, -0.35661792755126953 
90, 0.18207895755767822, -0.7341349124908447, -1.1587133407592773 
91, -0.8034494519233704, -1.0699758529663086, -0.8008213043212891 
92, -0.404782235622406, -1.501631498336792, -0.08443355560302734 
93, 0.4386593699455261, -0.8044761419296265, 0.6487407684326172 
94, 0.9686235189437866, -0.611790657043457, 1.0958576202392578 
95, 0.941016435623169, -0.4956243634223938, 2.4324846267700195 
96, 0.5878649950027466, -0.32886365056037903, 2.3163862228393555 
97, -0.3267073631286621, -0.7922430038452148, 3.230579376220703 
98, 1.3196120262145996, -1.4151575565338135, 7.082932472229004 
99, 2.3644399642944336, -1.334679365158081, 9.299162864685059 
100, 2.3557002544403076, -1.009013295173645, 9.254697799682617 
101, 1.5766743421554565, -1.4789563417434692, 10.682679176330566 
102, 1.2383724451065063, -2.270193576812744, 13.467571258544922 
103, 1.3968873023986816, -1.9413398504257202, 13.25885009765625 
104, 1.146125078201294, -1.8982294797897339, 12.181419372558594 
105, 0.42089009284973145, -1.6227954626083374, 10.436882972717285 
106, -0.2644282579421997, -1.3303699493408203, 8.491172790527344 
107, -0.23686110973358154, -1.7393304109573364, 6.608640670776367 
108, 0.619757890701294, -2.505507707595825, 4.779365539550781 
109, 1.283100962638855, -3.1157186031341553, 3.257645606994629 
110, 1.3601129055023193, -3.3931643962860107, 2.255655288696289 
111, 1.020650863647461, -3.542689085006714, 1.5080690383911133 
112, 0.4299473762512207, -3.591588020324707, 1.0811405181884766 
113, -0.07773494720458984, -3.4914321899414062, 0.8470067977905273 
114, 0.23956000804901123, -3.066473960876465, 0.5218105316162109 
115, 0.9572415351867676, -2.1783266067504883, 0.8417339324951172 
116, 1.7868082523345947, -1.775376796722412, 1.5330677032470703 
117, 1.535076379776001, -1.8033394813537598, 1.7616796493530273 
118, 0.8102257251739502, -2.0218591690063477, 1.9843502044677734 
119, -0.026183128356933594, -2.6581883430480957, 2.396479606628418 
120, -0.1456059217453003, -2.1346912384033203, 3.544004440307617 
121, 0.7287172675132751, 0.014348983764648438, 4.971639633178711 
122, 1.263948917388916, 3.833184242248535, 6.91417121887207 
123, -1.464285969734192, 9.071775436401367, 5.099202632904053 
124, -2.564207077026367, 6.576382637023926, -1.0791749954223633 
125, -1.8762623071670532, 1.5572071075439453, -3.727874755859375 
126, 0.41503196954727173, -4.825915336608887, -2.812366485595703 
127, 1.9967405796051025, -10.959714889526367, -0.381777286529541 
128, 0.9871003031730652, -15.311948776245117, -0.5765058994293213 
129, -1.1832783222198486, -16.650718688964844, -3.9155337810516357 
130, -1.9756370782852173, -11.751626014709473, -8.98631477355957 
131, -3.9679863452911377, -4.429108619689941, -15.33537483215332 
132, -6.448757171630859, -1.0532913208007812, -9.078255653381348 
133, -8.779596328735352, -3.177859306335449, -0.48300957679748535 
134, -0.23858976364135742, -9.510024070739746, -0.2372722625732422 
135, 5.820411682128906, -12.704137802124023, -4.240838527679443 
136, 6.806931495666504, -13.744706153869629, -5.994549751281738 
137, 6.397429466247559, -12.86344051361084, -1.1777501106262207 
138, 5.29194450378418, -9.857184410095215, 1.1589524745941162 
139, 1.3600702285766602, -8.518133163452148, -2.869194746017456 
140, 1.3211727142333984, -8.46735954284668, -2.837437152862549 
141, 0.4987293481826782, -8.611933708190918, -3.5462138652801514 
142, 0.6717255711555481, -8.82068157196045, -3.5154504776000977 
143, -0.052065491676330566, -9.39554500579834, -3.3292267322540283 
144, -0.5374751091003418, -9.49073314666748, -2.702988862991333 
145, -0.5366322994232178, -9.449110984802246, -2.3177714347839355 
146, -0.30505508184432983, -9.15750503540039, -2.878268003463745 
147, -0.5496245622634888, -8.50089168548584, -2.963548183441162 
148, -1.4969265460968018, -7.576796531677246, -2.730719566345215 
149, -2.751404047012329, -6.290196418762207, -2.840282917022705 
150, -2.7137088775634766, -5.146965026855469, -3.3773670196533203 
151, -1.6198176145553589, -4.618553161621094, -5.0859808921813965 
152, -2.852203845977783, -1.1412649154663086, -6.244598865509033 
153, -4.137948989868164, 4.988062858581543, -2.224470853805542 
154, -7.888921737670898, 16.661039352416992, 15.095172882080078 
155, 5.33590030670166, 10.430004119873047, -0.13109779357910156 
156, 6.9698686599731445, 0.44755029678344727, -2.9670510292053223 
157, -3.624803304672241, -2.051447868347168, 8.878353118896484 
158, -4.65171480178833, -5.110262870788574, 6.326421737670898 
159, -4.584273815155029, -4.620347023010254, 5.851271629333496 
160, -2.912696361541748, -4.976451873779297, -1.4343161582946777 
161, 2.0557191371917725, -2.625730037689209, -0.5084948539733887 
162, -0.19124507904052734, -0.8262319564819336, 4.1893157958984375 
163, -1.078704833984375, 0.2432394027709961, 3.763143539428711 
164, -1.9238771200180054, -0.6588301658630371, 1.2676715850830078 
165, -0.6277510523796082, -2.5096349716186523, 0.9620161056518555 
166, 1.623279094696045, -3.033139228820801, 0.36818695068359375 
167, 2.3143203258514404, -2.369067668914795, 0.3909168243408203 
168, 2.182858467102051, -1.0860450267791748, -0.059650421142578125 
169, 0.1707468032836914, -0.420424222946167, -0.14869213104248047 
170, -1.5853230953216553, 0.0819251537322998, 0.9767751693725586 
171, -1.3645522594451904, 0.1420576572418213, 1.9078912734985352 
172, -0.5628347396850586, -0.40286004543304443, 1.1230392456054688 
173, 0.3374025821685791, -0.9335957169532776, 1.1622381210327148 
174, 1.2295985221862793, -0.6975489258766174, 1.3525724411010742 
175, 1.2033737897872925, -0.6241604089736938, 1.9400548934936523 
176, 0.5113931894302368, -0.5682767629623413, 2.537069320678711 
177, 0.6404014825820923, -0.522911548614502, 3.18084716796875 
178, 0.42780065536499023, -1.277806282043457, 5.494081497192383 
179, 0.41689836978912354, -0.9764363765716553, 5.525149345397949 
180, -0.4510236978530884, -1.031712293624878, 6.778241157531738 
181, -0.4812122583389282, -0.8208649158477783, 6.800668716430664 
182, 2.06862735748291, -2.3836703300476074, 11.448718070983887 
183, 1.5354225635528564, -3.0121138095855713, 11.568962097167969 
184, 0.8846219778060913, -2.7090036869049072, 10.95637321472168 
185, 0.5740212202072144, -1.9916105270385742, 10.720952033996582 
186, 0.7552288770675659, -1.5949594974517822, 10.246769905090332 
187, 0.5029622316360474, -1.435366153717041, 7.024066925048828 
188, 0.04183852672576904, -1.6033620834350586, 5.4397430419921875 
189, 0.04690814018249512, -1.4724061489105225, 4.776993751525879 
190, 0.16497981548309326, -1.2377114295959473, 3.8725757598876953 
191, 0.2525264024734497, -1.5347062349319458, 2.5414390563964844 
192, 0.7829470634460449, -1.7987220287322998, 1.761383056640625 
193, 1.1033791303634644, -1.8665395975112915, 0.44852638244628906 
194, 0.8950436115264893, -2.198636054992676, -0.9347410202026367 
195, 0.7725619077682495, -1.9731829166412354, -0.44466686248779297 
196, 1.1242796182632446, -1.7594213485717773, -0.030050277709960938 
197, 0.8428503274917603, -1.1304905414581299, 0.5723199844360352 
198, 0.8708491325378418, -1.7001080513000488, 0.8264970779418945 
199, 1.0731667280197144, -1.0248031616210938, 0.4450664520263672 
200, 1.182737946510315, -1.5735154151916504, 0.7753715515136719 
201, 0.6949914693832397, -1.769911289215088, 0.9769649505615234 
202, -0.7951866984367371, -2.2696876525878906, 2.52095365524292 
203, -0.8234578371047974, -0.3895688056945801, 4.138304233551025 
204, -1.2532107830047607, 3.496091365814209, 7.90360689163208 
205, -0.7276877164840698, 8.043042182922363, 9.121816635131836 
206, -0.7589403390884399, 10.462234497070312, 6.3025007247924805 
207, -0.7567675113677979, 9.545621871948242, 1.7478752136230469 
208, -1.0394400358200073, 5.764819145202637, -2.5903306007385254 
209, -0.274375319480896, -0.8105268478393555, -4.197168827056885 
210, 1.4636967182159424, -7.406595230102539, -2.483509063720703 
211, 2.23826265335083, -11.500003814697266, -2.039827585220337 
212, 0.4082048535346985, -14.441479682922363, -2.2762093544006348 
213, -2.237767219543457, -13.555953025817871, -4.323140621185303 
214, -4.875748634338379, -8.388484954833984, -9.266546249389648 
215, -6.549269676208496, -2.5210371017456055, -10.083443641662598 
216, -8.801124572753906, -0.5880947113037109, -2.0030579566955566 
217, -9.652206420898438, -5.497806549072266, -2.4656293392181396 
218, 8.436866760253906, -13.17393970489502, -5.198442459106445 
219, 8.33374309539795, -13.07217788696289, -5.382165908813477 
220, 7.578760147094727, -15.672513008117676, -3.2518889904022217 
221, 5.867100715637207, -13.82065200805664, 0.09041762351989746 
222, 1.787360429763794, -8.445698738098145, -2.46402645111084 
223, 1.3724277019500732, -7.813237190246582, -2.118135929107666 
224, 1.2399662733078003, -7.787301063537598, -2.3292531967163086 
225, 0.5283019542694092, -8.307999610900879, -2.786435842514038 
226, -0.47771167755126953, -8.775979042053223, -2.829646110534668 
227, -1.0145549774169922, -9.14883041381836, -2.6944169998168945 
228, -1.140304446220398, -9.285619735717773, -2.918853998184204 
229, -0.3634864091873169, -9.049809455871582, -3.256524085998535 
230, 0.7321663498878479, -8.074599266052246, -3.8838109970092773 
231, 1.0483598709106445, -6.950716972351074, -3.9801621437072754 
232, 0.5207664370536804, -5.83693790435791, -4.230148792266846 
233, 0.23262184858322144, -4.693275451660156, -4.67564582824707 
234, 0.5251785516738892, -4.044075965881348, -4.664482116699219 
235, 0.6867943406105042, -3.768289566040039, -3.8707454204559326 
236, 0.8310234546661377, -2.5698471069335938, -2.5122997760772705 
237, -0.6220465302467346, -0.48723411560058594, -1.4792869091033936 
238, -9.979498863220215, 16.223106384277344, 8.51364803314209 
239, -9.639808654785156, 16.57268714904785, 7.811435222625732 
240, 1.921018362045288, 10.517328262329102, 5.9039306640625 
241, 2.525526762008667, 6.764085292816162, 8.277734756469727 
242, 2.6788926124572754, -3.222886085510254, 7.332790851593018 
243, 7.297300815582275, -3.063385486602783, 4.446986675262451 
244, 3.1084375381469727, -4.105269908905029, -2.6331872940063477 
245, -1.9179719686508179, -3.1585702896118164, 0.15637969970703125 
246, -5.919020175933838, -2.126286029815674, 4.058392524719238 
247, -3.7844812870025635, -2.4960927963256836, 2.9823379516601562 
248, 1.3069466352462769, -1.0815467834472656, 1.7501039505004883 
249, 3.8257977962493896, 0.9161734580993652, 3.004014015197754 
250, 1.7541369199752808, -0.2619044780731201, 1.9374399185180664 
251, -0.9453941583633423, -2.8743233680725098, -0.4461669921875 
252, -1.4578790664672852, -2.0232393741607666, -0.6122407913208008 
253, -0.14955204725265503, -2.1152448654174805, 0.22439193725585938 
254, 0.7054633498191833, -0.8669474124908447, 0.2801351547241211 
255, 0.5232914090156555, 0.1009448766708374, 0.6804609298706055 
256, -0.589165210723877, 0.6256384253501892, 1.8796205520629883 
257, -2.6779236793518066, 0.26358330249786377, 2.0880584716796875 
258, -2.6779236793518066, 0.26358330249786377, 2.0880584716796875 
259, 0.051745593547821045, -0.7244766354560852, 3.923877716064453 
260, 1.4331936836242676, -1.0911777019500732, 5.148841857910156 
261, 1.4736652374267578, -0.605530858039856, 5.131314277648926 
262, -1.7654919624328613, 0.029777050018310547, 7.062687873840332 
263, -1.6435116529464722, -0.4605748653411865, 7.5148468017578125 
264, -0.4310125708580017, -1.271641731262207, 11.230392456054688 
265, 1.273855447769165, -1.9963762760162354, 12.376819610595703 
266, 1.3595627546310425, -2.014822483062744, 12.617051124572754 
267, -0.22375452518463135, -1.9929850101470947, 11.468647956848145 
268, -0.9143499135971069, -1.7165591716766357, 9.48336124420166 
269, -0.48380517959594727, -1.9813008308410645, 8.313985824584961 
270, 1.275736927986145, -2.0162010192871094, 7.064740180969238 
271, 2.2921838760375977, -1.913572072982788, 6.055759429931641 
272, 2.1182241439819336, -2.0534865856170654, 5.177160263061523 
273, 1.5036828517913818, -2.0678348541259766, 3.82236385345459 
274, 0.30464380979537964, -2.0962836742401123, 2.0191822052001953 
275, -0.20705139636993408, -2.1546072959899902, 0.9944038391113281 
276, -0.407792866230011, -2.0909852981567383, 0.5370931625366211 
277, 0.20983284711837769, -2.365218162536621, 0.2676677703857422 
278, 1.4969353675842285, -2.0401008129119873, -0.24384212493896484 
279, 1.4779918193817139, -2.587435483932495, -0.09852218627929688 
280, 1.2178444862365723, -2.633401870727539, 0.8290786743164062 
281, 0.9092832803726196, -2.704724073410034, 0.8195533752441406 
282, 0.6453603506088257, -2.592289447784424, 0.7495851516723633 
283, 0.11610734462738037, -1.3627405166625977, 0.3031330108642578 
284, 0.6032066345214844, -0.5806541442871094, 0.7934904098510742 
285, 0.5759585499763489, -1.1578469276428223, 1.2170896530151367 
286, -0.019191443920135498, -0.481473445892334, 2.917067050933838 
287, 1.111310362815857, -0.9960088729858398, 3.3746190071105957 
288, 1.4375032186508179, -0.08141040802001953, 4.73692512512207 
289, 0.4019170105457306, 2.5933666229248047, 10.180110931396484 
290, 1.83231520652771, 5.713500022888184, 11.749314308166504 
291, 1.7243021726608276, 8.064730644226074, 6.691773891448975 
292, -0.19039660692214966, 8.413572311401367, 0.8261575698852539 
293, -2.269235134124756, 0.6800937652587891, -4.185393333435059 
294, -1.940039873123169, -4.395915985107422, -1.9809257984161377 
295, -0.7314463257789612, -9.70103645324707, -1.1706583499908447 
296, -2.3786585330963135, -13.779016494750977, -4.2126851081848145 
297, -2.9941062927246094, -13.348092079162598, -9.147412300109863 
298, -9.207151412963867, -3.2474746704101562, -2.923379421234131 
299, -9.09847354888916, -3.191342353820801, -3.228219985961914 
300, -9.716097831726074, -4.097838401794434, -5.423071384429932 
301, 1.2140145301818848, -7.001255035400391, -3.7158305644989014 
302, 8.690465927124023, -15.321745872497559, -3.4968059062957764 
303, 4.04296875, -14.797666549682617, 0.5746200084686279 
304, 0.9935816526412964, -11.742087364196777, 0.908761739730835 
305, 0.2375274896621704, -8.306638717651367, -0.8322722911834717 
306, 1.2097792625427246, -7.110240936279297, -1.3883378505706787 
307, 1.4333380460739136, -7.785028457641602, -2.6663756370544434 
308, 0.9962813854217529, -9.154191017150879, -4.474048614501953 
309, 0.7939640879631042, -10.251004219055176, -4.963642120361328 
310, 0.7353128790855408, -10.708078384399414, -3.896056890487671 
311, 0.7618738412857056, -10.300582885742188, -2.919995069503784 
312, 0.8447097539901733, -9.070038795471191, -2.5939388275146484 
313, 0.8347049951553345, -7.837145805358887, -2.223754405975342 
314, 0.9810156226158142, -7.233198165893555, -1.784409761428833 
315, 0.6446923017501831, -7.543526649475098, -1.9772777557373047 
316, -0.06001603603363037, -7.787810325622559, -2.7778642177581787 
317, -0.4576227068901062, -6.952385902404785, -3.561649799346924 
318, 0.7138458490371704, -5.068817138671875, -4.767248153686523 
319, 0.7110453844070435, -4.968808174133301, -5.040494441986084 
320, 0.4577822685241699, -3.9098033905029297, -6.374750137329102 
321, -2.750802516937256, 0.7422323226928711, -1.8640742301940918 
322, -2.626112222671509, 1.1140480041503906, -2.630126476287842 
323, -8.300065994262695, 19.091712951660156, 6.717967510223389 
324, -1.8454242944717407, 10.437749862670898, 15.205041885375977 
325, -1.839625358581543, 5.647467136383057, 4.4052534103393555 
326, 4.481462001800537, -2.069028854370117, 6.105433464050293 
327, 0.6963473558425903, -6.029093265533447, 2.51033353805542 
328, -2.554816484451294, -4.9161458015441895, -2.9685230255126953 
329, -3.2534680366516113, -3.4861040115356445, 0.4788694381713867 
330, -1.3403724431991577, -1.3045058250427246, 2.9851503372192383 
331, 0.7314492464065552, 2.2099764347076416, 2.7697153091430664 
332, 2.266791820526123, 0.9802286624908447, 2.599313735961914 
333, 3.0746591091156006, -0.13301873207092285, 1.7456159591674805 
334, 1.4294599294662476, -1.7432985305786133, 1.6127099990844727 
335, 0.06114187836647034, -1.7364528179168701, 0.058770179748535156 
336, -0.05855993926525116, -2.1448960304260254, -0.663395881652832 
337, 0.14298781752586365, -1.2275323867797852, 1.7351255416870117 
338, 1.5430083274841309, 0.5993430614471436, 3.366093635559082 
339, 1.497583031654358, 1.0100977420806885, 3.3518476486206055 
340, 0.31802526116371155, 0.7234408855438232, 2.8220176696777344 
341, -1.1248139142990112, 0.10950577259063721, 3.417830467224121 
342, -0.10331779718399048, -2.6521599292755127, 3.0514488220214844 
343, -0.11931902170181274, -2.184030532836914, 4.797358512878418 
344, -0.0694953203201294, -1.4593210220336914, 5.953468322753906 
345, -0.34731411933898926, -1.0614736080169678, 9.912771224975586 
346, 0.01588284969329834, -1.5846624374389648, 12.512653350830078 
347, 0.17120128870010376, -2.239487648010254, 14.001788139343262 
348, -1.1252261400222778, -2.659505844116211, 13.565953254699707 
349, -1.858284592628479, -3.0854718685150146, 12.283215522766113 
350, -0.8485605716705322, -2.9873011112213135, 10.803544044494629 
351, 0.1895890235900879, -2.6911978721618652, 8.910985946655273 
352, -0.013866066932678223, -2.0753798484802246, 7.566194534301758 
353, -0.6177102327346802, -1.3235713243484497, 6.458673477172852 
354, -0.5243616104125977, -1.3506828546524048, 5.428192138671875 
355, 0.7927814722061157, -1.5894513130187988, 4.043519973754883 
356, 1.1712348461151123, -1.3131972551345825, 3.189413070678711 
357, 0.7476388812065125, -1.401153326034546, 1.8154106140136719 
358, -0.24940723180770874, -1.1097161769866943, -0.011258125305175781 
359, -0.15684518218040466, -1.673903226852417, 0.07030010223388672 
360, 0.096703439950943, -1.7024040222167969, -0.9124031066894531 
361, 0.855415403842926, -1.8187639713287354, -0.8616752624511719 
362, 1.444061040878296, -1.7393708229064941, -0.9247875213623047 
363, 0.9642020463943481, -1.2848615646362305, 0.18570423126220703 
364, 1.5156779289245605, -1.3684062957763672, 0.9996223449707031 
365, 2.237074851989746, -1.0224547386169434, 1.027348518371582 
366, 1.883743166923523, -1.1076469421386719, 0.4862508773803711 
367, 1.2497689723968506, -1.6698355674743652, -0.3937873840332031 
368, -0.0162697434425354, -2.3029823303222656, 0.8915038108825684 
369, -1.2629947662353516, -2.2660446166992188, 4.287391185760498 
370, -0.7106771469116211, 0.43616533279418945, 5.809663772583008 
371, -0.8400914669036865, 5.590555667877197, 7.386896133422852 
372, -1.2663373947143555, 13.858989715576172, 6.302337169647217 
373, -3.59832763671875, 16.43607521057129, 1.7260642051696777 
374, -3.1339707374572754, 10.141613006591797, -1.54095458984375 
375, -1.6546192169189453, 3.365115165710449, -2.028947114944458 
376, 0.2909313440322876, -4.915035247802734, 0.1259765625 
377, 0.7478296756744385, -12.15659236907959, 0.851704478263855 
378, -1.260762095451355, -17.261512756347656, -4.806282997131348 
379, -3.472867965698242, -4.100316047668457, -17.76560401916504 
380, -3.363274574279785, -4.049016952514648, -17.83390235900879 
381, -5.262256145477295, -0.8468446731567383, -5.338738918304443 
382, -9.574893951416016, -4.897503852844238, 1.7372801303863525 
383, 8.19159984588623, -15.311326026916504, 0.7013905048370361 
384, 15.677038192749023, -14.750510215759277, -4.880137920379639 
385, 15.485943794250488, -13.523458480834961, -2.5630602836608887 
386, 8.039727210998535, -11.172074317932129, 1.4746971130371094 
387, 4.853675842285156, -8.561505317687988, -1.3417057991027832 
388, 1.844771146774292, -7.971467018127441, -2.8251423835754395 
389, 0.33254218101501465, -7.7595319747924805, -3.400038003921509 
390, -0.6554174423217773, -7.82429313659668, -4.156347751617432 
391, -1.8495551347732544, -8.201888084411621, -3.9390769004821777 
392, -2.869345188140869, -8.827686309814453, -2.9080686569213867 
393, -2.299532413482666, -9.513041496276855, -2.7350106239318848 
394, 0.9544882774353027, -9.477543830871582, -3.364720106124878 
395, 1.543995976448059, -8.799897193908691, -4.671743869781494 
396, 1.6122870445251465, -7.997136116027832, -4.460737705230713 
397, 1.6866273880004883, -7.170541763305664, -3.611588478088379 
398, 1.506994605064392, -6.206866264343262, -3.637460231781006 
399, 0.5363781452178955, -4.167398452758789, -3.9289705753326416 
400, 0.5076198577880859, -4.114612579345703, -4.13212776184082 
401, 0.8070251941680908, -3.621170997619629, -3.954768419265747 
402, 1.7148609161376953, -3.618663787841797, -2.9603397846221924 
403, -8.109220504760742, 4.136310577392578, 9.616164207458496 
404, -12.191343307495117, 9.812519073486328, 9.89687728881836 
405, -5.331752777099609, 5.142447471618652, 8.882150650024414 
406, -8.765384674072266, 7.613816261291504, 4.066675186157227 
407, -10.533825874328613, 16.46844482421875, 0.5745577812194824 
408, -0.21078920364379883, 17.417051315307617, 3.059882640838623 
409, 11.419685363769531, -2.5078234672546387, 2.86411714553833 
410, 8.32998275756836, -26.800065994262695, -2.607393264770508 
411, 1.7828946113586426, -10.260154724121094, -5.971673965454102 
412, -2.2672038078308105, -0.3862905502319336, -1.4497737884521484 
413, -2.620655059814453, 6.149421215057373, 4.079730033874512 
414, -0.19630718231201172, 8.042332649230957, 5.290199279785156 
415, 1.2100353240966797, 1.3041934967041016, 0.4617166519165039 
416, 0.389593243598938, -3.147787570953369, -2.5342702865600586 
417, -0.9466285705566406, -3.326653480529785, -2.362415313720703 
418, -0.0011290907859802246, -3.7437281608581543, -2.398350715637207 
419, 3.5782899856567383, -0.6878013610839844, -0.2212228775024414 
420, 3.4226083755493164, -0.21735215187072754, -0.2862234115600586 
421, 2.762233257293701, 0.013739049434661865, 0.2263927459716797 
422, 0.8804003596305847, -0.05158046633005142, 0.7265434265136719 
423, 0.0891672670841217, -1.317105770111084, 1.7648134231567383 
424, 0.23856331408023834, -0.9982088208198547, 2.3663196563720703 
425, 0.12587913870811462, -0.5072009563446045, 2.419711112976074 
426, -0.3577066659927368, -1.4654191732406616, 6.004153251647949 
427, -1.2562872171401978, -2.134587287902832, 8.367329597473145 
428, -0.9610174298286438, -1.6870126724243164, 10.790990829467773 
429, -0.835683286190033, -1.8205878734588623, 14.397578239440918 
430, -0.5547245740890503, -2.6165339946746826, 15.710262298583984 
431, -0.47058993577957153, -3.7534749507904053, 16.56523323059082 
432, -1.1672366857528687, -3.4870707988739014, 16.076385498046875 
433, -1.069737434387207, -2.3835535049438477, 14.302660942077637 
434, -0.30494052171707153, -2.3740532398223877, 11.219103813171387 
435, 0.7733194828033447, -2.596223831176758, 8.57353401184082 
436, 1.047707200050354, -2.278074264526367, 6.462773323059082 
437, 0.25108906626701355, -2.039956569671631, 4.954826354980469 
438, -0.1150110512971878, -1.8362641334533691, 3.6145524978637695 
439, 1.4095045328140259, -2.431631088256836, 0.7877159118652344 
440, 1.4876492023468018, -3.0260086059570312, 0.8160772323608398 
441, 1.530055284500122, -2.6358344554901123, 0.27984142303466797 
442, 1.0712065696716309, -2.608954429626465, -0.16981983184814453 
443, 0.6552116870880127, -2.9196958541870117, -0.23216915130615234 
444, 1.6993989944458008, -1.4162473678588867, -0.3748464584350586 
445, 2.371490955352783, -1.6055331230163574, -0.4903831481933594 
446, 2.542604684829712, -1.5344767570495605, -1.4254913330078125 
447, 1.6346129179000854, -0.7561531066894531, -2.620716094970703 
448, -0.0500338077545166, -0.03464555740356445, -2.0633487701416016 
449, -1.1383768320083618, 0.05702972412109375, 1.2841625213623047 
450, -1.9288333654403687, 0.0778346061706543, 3.6771116256713867 
451, -2.0090012550354004, 1.2764248847961426, 5.623279094696045 
452, -1.9172823429107666, 5.288804054260254, 6.93845796585083 
453, -2.7464535236358643, 10.945000648498535, 5.642892837524414 
454, -3.0152761936187744, 12.875234603881836, 2.501554012298584 
455, -1.676039218902588, 10.401237487792969, -0.5867996215820312 
456, -0.39069175720214844, 4.739133834838867, -2.545649766921997 
457, 1.7211461067199707, -4.708130836486816, -2.0889017581939697 
458, 2.733065128326416, -12.076234817504883, -0.9948099851608276 
459, 2.8575358390808105, -17.586336135864258, -9.160717010498047 
460, 2.7359485626220703, -17.557170867919922, -8.776158332824707 
461, -6.4951629638671875, 0.5912418365478516, -7.182673454284668 
462, -15.240301132202148, 1.9824142456054688, 3.941190481185913 
463, -9.528090476989746, -3.5010738372802734, -2.4486911296844482 
464, 0.9595808982849121, -11.657859802246094, -2.3188536167144775 
465, 8.474529266357422, -15.709052085876465, -3.336031913757324 
466, 10.655219078063965, -17.303998947143555, -4.139622211456299 
467, 8.86437702178955, -15.747702598571777, -1.342207908630371 
468, 5.613759994506836, -11.02950668334961, 0.44769716262817383 
469, 5.37616491317749, -8.665719032287598, -1.319251298904419 
470, 4.661650657653809, -7.6716814041137695, -2.3336548805236816 
471, 3.2882583141326904, -7.40717887878418, -2.790921211242676 
472, 1.3830070495605469, -8.304431915283203, -3.2458996772766113 
473, -0.06332993507385254, -8.967066764831543, -3.10680890083313 
474, -0.7432726621627808, -8.953746795654297, -2.3886938095092773 
475, -0.9285649061203003, -8.993675231933594, -1.77836275100708 
476, -0.08401477336883545, -9.12399673461914, -2.5002810955047607 
477, 0.8974223136901855, -8.859312057495117, -3.694272756576538 
478, 0.690595269203186, -7.410917282104492, -4.411596298217773 
479, -1.149177074432373, -5.240911483764648, -3.217794895172119 
480, 0.22007954120635986, -4.771150588989258, -3.683881998062134 
481, 2.0816657543182373, -4.909729957580566, -4.514937877655029 
482, 2.124267101287842, -4.731180191040039, -5.024193286895752 
483, 2.5073227882385254, -4.142158508300781, -5.352059364318848 
484, -0.38337957859039307, -0.7915258407592773, 3.586869239807129 
485, -8.263215065002441, 6.746160507202148, 10.758241653442383 
486, -5.871057033538818, 11.644412994384766, 4.925123691558838 
487, -1.5605781078338623, 14.47028923034668, 8.642509460449219 
488, -6.46328592300415, 21.18865966796875, 3.0296335220336914 
489, -6.159143924713135, 16.509510040283203, 2.1245803833007812 
490, 9.110333442687988, -5.4596123695373535, 2.5967836380004883 
491, 1.9597983360290527, -20.959972381591797, -2.725292205810547 
492, 3.7585952281951904, -8.894765853881836, -3.5642824172973633 
493, -1.0246593952178955, -4.077359676361084, -3.196619987487793 
494, -3.9643335342407227, 0.5942392349243164, 1.3399772644042969 
495, -3.7991762161254883, 5.394760608673096, 7.273395538330078 
496, 4.090493202209473, 2.461348295211792, 1.7359619140625 
497, 4.709201335906982, -2.7329232692718506, -0.37876319885253906 
498, 2.244917392730713, -4.694103240966797, -0.6380014419555664 
499, 0.8552353382110596, -3.562474489212036, -0.9640254974365234 
500, 0.7963451743125916, -1.9127813577651978, 0.17534255981445312 
501, 0.7585753798484802, -1.4086005687713623, 0.14456844329833984 
502, 0.5282453298568726, -0.5688076019287109, 0.6939630508422852 
503, -0.40377137064933777, 0.4654879570007324, 2.2057790756225586 
504, 0.19996419548988342, -1.5218616724014282, 4.711143493652344 
505, 1.03813898563385, -1.6736509799957275, 6.572691917419434 
506, 1.2029271125793457, -1.763272762298584, 9.705167770385742 
507, 0.505242645740509, -2.121683120727539, 10.855146408081055 
508, -1.0982670783996582, -2.318686008453369, 12.743094444274902 
509, -1.1006321907043457, -3.013169765472412, 14.408590316772461 
510, -0.24639269709587097, -3.6687185764312744, 14.125368118286133 
511, -0.5463420748710632, -3.5396928787231445, 12.44281005859375 
512, -0.7553118467330933, -2.689678430557251, 11.177204132080078 
513, -0.43980854749679565, -2.3910465240478516, 9.058533668518066 
514, -0.21523070335388184, -2.263171434402466, 6.957167625427246 
515, -0.046534717082977295, -1.589906930923462, 5.426889419555664 
516, -0.19931264221668243, -1.333634614944458, 3.919452667236328 
517, -0.08462228626012802, -1.2778866291046143, 2.496588706970215 
518, 0.2359580546617508, -1.2308725118637085, 1.4101238250732422 
519, 0.03816021978855133, -0.39560267329216003, 0.24048519134521484 
520, 0.11474114656448364, -0.33603447675704956, 0.05518913269042969 
521, 0.17042438685894012, -0.8066692352294922, 0.1022186279296875 
522, 0.6886738538742065, -1.1301703453063965, -0.5710554122924805 
523, 1.0487887859344482, -1.2185776233673096, -1.3333911895751953 
524, 0.37091064453125, -0.74127197265625, -2.0199623107910156 
525, 0.10090866684913635, -0.9365382194519043, -2.394643783569336 
526, 0.038058340549468994, -1.312253713607788, -2.8056678771972656 
527, 0.11721891164779663, -1.7586262226104736, -2.4883365631103516 
528, 0.09664720296859741, -1.3469834327697754, -2.347540855407715 
529, 0.2109764814376831, -0.5074424743652344, -2.065587043762207 
530, 0.23614609241485596, 0.26393938064575195, -1.3796844482421875 
531, 0.3253275156021118, 0.45903635025024414, -0.9929428100585938 
532, 0.41962671279907227, 0.03320169448852539, -1.31927490234375 
533, 0.2306041121482849, -0.9404916763305664, -1.473893165588379 
534, 0.17835718393325806, -2.053149700164795, -1.709341049194336 
535, 0.1455841064453125, -2.289428234100342, -2.2720513343811035 
536, 0.11903274059295654, -1.6215648651123047, -2.5643458366394043 
537, -0.051827073097229004, -0.7945265769958496, -1.8539633750915527 
538, 0.011829257011413574, -0.38549137115478516, -1.0434837341308594 
539, 0.5584895610809326, 0.42971086502075195, -1.7547593116760254 
540, 0.3134115934371948, -2.0997681617736816, -1.025648593902588 
541, 0.3824852705001831, -2.305788516998291, -0.7277684211730957 
542, -0.11996233463287354, -3.6646499633789062, -1.227917194366455 
543, -0.25711166858673096, -3.1836938858032227, -3.305037498474121 
544, 0.7488055229187012, -4.541845321655273, -2.0157384872436523 
545, 0.9406287670135498, -4.203873634338379, -4.090991973876953 
546, 2.1197004318237305, -1.022933006286621, -2.170525550842285 
547, -0.10656976699829102, -1.7703523635864258, -0.026038169860839844 
548, -0.7426779270172119, -1.5292024612426758, -1.0589940547943115 
549, -0.9905638694763184, -1.3850126266479492, -3.025968074798584 
550, -1.5013618469238281, -1.656968116760254, -4.021674156188965 
551, -2.012343406677246, -3.4891490936279297, -1.431286334991455 
552, -0.6864233016967773, -4.337857246398926, 0.7302713394165039 
553, 0.11801087856292725, -3.237154006958008, -0.8042540550231934 
554, 0.6520230770111084, -1.0753755569458008, -2.4979448318481445 
555, -0.17997419834136963, 0.5065193176269531, -1.9975004196166992 
556, -0.4301021099090576, -0.19923782348632812, -0.7343701124191284 
557, -0.11154985427856445, -1.3697004318237305, -0.9482923746109009 
558, 0.27850842475891113, -1.2242231369018555, -0.39539921283721924 
559, -0.3057297468185425, 0.5890274047851562, 0.30298590660095215 
560, -0.28947246074676514, 3.5019798278808594, 0.4733099937438965 
561, 0.26392054557800293, 2.4136476516723633, 0.48727476596832275 
562, 0.26091158390045166, 2.3964109420776367, 0.5311450958251953 
563, 0.3260922431945801, 1.4264183044433594, -0.3947110176086426 
564, 0.39006221294403076, 0.1181192398071289, 0.08729279041290283 
565, -1.2416026592254639, -0.5742206573486328, -0.5737824440002441 
566, -1.1740878820419312, -0.44103240966796875, -0.8122103214263916 
567, -1.494901418685913, -1.4873046875, -1.3491811752319336 
568, -1.3963323831558228, -1.2678642272949219, -0.7952256202697754 
569, -0.8794587850570679, -0.4971933364868164, -0.636924147605896 
570, -0.26329851150512695, -0.18869876861572266, -0.6154149770736694 
571, 1.2357792854309082, -1.9412031173706055, -0.41662847995758057 
572, -2.316804885864258, -0.6350917816162109, -0.5827862024307251 
573, 0.3830075263977051, 0.08945941925048828, 1.0049842596054077 
574, 0.28846001625061035, -0.23847007751464844, 0.6026030778884888 
575, 0.09542465209960938, 0.31544971466064453, -0.5624027252197266 
576, -1.22062087059021, 0.3922281265258789, -0.22954249382019043 
577, -0.22017979621887207, -1.19183349609375, 1.618068814277649 
578, 1.4721242189407349, -0.632476806640625, 0.41771161556243896 
579, 1.678067922592163, 0.25064563751220703, -0.18757712841033936 
580, 1.435731291770935, 1.5934724807739258, -1.2759740352630615 
581, 1.46225905418396, 1.5962305068969727, -1.2971807718276978 
582, 0.4526456594467163, -0.10477733612060547, 2.4001851081848145 
583, -1.7346506118774414, -2.4197092056274414, 0.6729564666748047 
584, -1.4998522996902466, 1.1236114501953125, -0.6856961250305176 
585, 1.1710320711135864, -1.417008399963379, -0.9626928567886353 
586, 1.0890578031539917, -1.536672592163086, -1.0234220027923584 
587, 0.34155476093292236, -1.3232841491699219, -0.6571012735366821 
588, 0.1927022933959961, -0.7813825607299805, -1.1234815120697021 
589, 0.7431856393814087, -0.019736289978027344, -7.73063850402832 
590, -1.8916195631027222, 1.7562217712402344, 5.209863662719727 
591, -1.4527981281280518, 1.2405986785888672, 2.3533124923706055 
592, -0.1321241855621338, -0.7904891967773438, -0.5512915849685669 
593, -1.0497993230819702, -0.3695497512817383, -0.7847198247909546 
594, -0.4003413915634155, 0.3811779022216797, -2.020216464996338 
595, 0.6209781169891357, 0.18427467346191406, -1.026256799697876 
596, -1.5545374155044556, 0.8800525665283203, 1.7281452417373657 
597, -1.1535978317260742, 1.543168067932129, 0.42890381813049316 
598, -0.44418227672576904, -1.5015869140625, -0.2068006992340088 
599, -1.60390043258667, -0.49175071716308594, -0.2683924436569214 
600, -0.1204521656036377, 0.5352077484130859, -1.1584635972976685 
601, 0.5203839540481567, -0.4589881896972656, -0.12746727466583252 
602, 0.536155104637146, -0.4550294876098633, -0.11613130569458008 
603, 0.1515357494354248, -1.67010498046875, -0.6159887313842773 
604, -0.194374680519104, -1.4464426040649414, -1.2897592782974243 
605, -0.573874831199646, -0.8368501663208008, -1.8997604846954346 
606, -0.06182503700256348, -0.10875988006591797, 1.3017576932907104 
607, -0.901015043258667, 1.1870346069335938, 2.8928840160369873 
608, -2.7334251403808594, 5.3360795974731445, 1.2799997329711914 
609, 2.462761402130127, -3.6441659927368164, -2.8166909217834473 
610, 0.5644437074661255, -2.4417543411254883, -0.06646919250488281 
611, 1.2141449451446533, -0.6860647201538086, -0.6510413885116577 
612, 0.061600327491760254, -1.4902935028076172, -0.7823835611343384 
613, -1.0101336240768433, -0.4440937042236328, 0.03957366943359375 
614, -1.1063868999481201, 0.24968433380126953, -0.9324113130569458 
615, -1.6902503967285156, 2.5830745697021484, -1.9229053258895874 
616, 0.3855036497116089, 0.43408203125, -0.9549732208251953 
617, -0.3893899917602539, -3.183774948120117, -0.3602031469345093 
618, 1.7274844646453857, -2.931396484375, 2.3838512897491455 
619, 3.679579257965088, -5.399136543273926, 5.675356388092041 
620, -4.43603515625, 5.42595100402832, -3.303861379623413 
621, -5.437648773193359, 2.797499656677246, 0.3656136989593506 
622, -5.506673336029053, 2.759495735168457, 0.38543081283569336 
623, -5.27606201171875, 4.733314514160156, -0.7000399827957153 
624, -3.529029130935669, 4.175749778747559, -1.4754412174224854 
625, -0.8484655618667603, 3.80075740814209, 0.8040560483932495 
626, -0.01695537567138672, 3.5736217498779297, -0.42416608333587646 
627, -1.5685758590698242, 0.8052453994750977, -0.5937620401382446 
628, -1.3258768320083618, -0.9946746826171875, -2.8301563262939453 
629, -0.08208338916301727, -0.8206338882446289, -1.3811129331588745 
630, 0.7229036092758179, 2.0523853302001953, -0.39560985565185547 
631, 0.7756025791168213, 2.962434768676758, 2.748530864715576 
632, -0.246010422706604, -1.742889404296875, 1.1192229986190796 
633, 0.6116796731948853, 1.0051240921020508, 1.0009186267852783 
634, 1.4459564685821533, 2.696770668029785, -1.0355271100997925 
635, 0.5192786455154419, 1.1894426345825195, 1.4263302087783813 
636, 2.744161605834961, 2.6773672103881836, -0.8175331354141235 
637, 3.4730613231658936, 4.899950981140137, 4.026115417480469 
638, 3.8778343200683594, 4.120989799499512, 6.03594446182251 
639, 4.108739376068115, 3.135300636291504, 6.8965935707092285 
640, 4.171722888946533, 3.6537599563598633, 3.9288113117218018 
641, 4.915375232696533, 5.0384626388549805, -2.2690255641937256 
642, 2.867957592010498, 0.04060840606689453, 6.292331695556641 
643, 0.9482969045639038, -2.158505439758301, 7.394975185394287 
644, 3.414057731628418, -2.6938695907592773, -2.4672210216522217 
645, 2.0179643630981445, -3.933608055114746, -0.20041394233703613 
646, 0.3128269910812378, -4.368546485900879, -0.575153112411499 
647, -0.6852266788482666, -2.8235082626342773, -0.2960851192474365 
648, -1.1392366886138916, -2.666759490966797, -0.11019611358642578 
649, -1.1392366886138916, -2.666759490966797, -0.11019611358642578 
650, -6.49263858795166, -4.774374961853027, 0.6300444602966309 
651, -6.49263858795166, -4.774374961853027, 0.6300444602966309 
652, -10.584772109985352, 6.375631332397461, 0.3320751190185547 
653, -2.142063617706299, -2.5270910263061523, 1.2161483764648438 
654, -2.116006851196289, -3.5721845626831055, -1.6242265701293945 
655, 0.9484739303588867, -2.749959945678711, -2.1657145023345947 
656, -0.5647892951965332, -3.9515719413757324, 3.7814903259277344 
657, -2.04361629486084, -0.2163071632385254, 3.7664828300476074 
658, -2.618257999420166, 2.5019125938415527, 7.638204097747803 
659, -1.459681510925293, -2.344165325164795, 2.3393197059631348 
660, -3.068709373474121, -1.056077480316162, 1.6588611602783203 
661, -3.291106700897217, -2.7490592002868652, 1.8223299980163574 
662, -3.667039394378662, -2.5762901306152344, 1.4732825756072998 
663, -1.9828104972839355, -1.4843378067016602, -0.41480016708374023 
664, 1.8700103759765625, -0.6698002815246582, -4.876302242279053 
665, 8.165385246276855, 0.21727418899536133, -8.276756286621094 
666, 2.7457423210144043, 1.7798523902893066, -5.33054256439209 
667, 0.5611510276794434, 2.6213769912719727, -1.8678572177886963 
668, 1.3098793029785156, -0.13922834396362305, 6.484546184539795 
669, -1.7476587295532227, -0.5869946479797363, -1.8117495775222778 
670, -1.8770833015441895, -1.7810492515563965, -3.543674945831299 
671, 5.68018102645874, 2.089651584625244, -3.486870527267456 
672, 3.1104722023010254, 0.9176249504089355, -1.7243388891220093 
673, 1.8125109672546387, 0.49491453170776367, -1.4771965742111206 
674, 0.08317279815673828, -0.14428138732910156, -2.2966718673706055 
675, 0.29221248626708984, 0.3364081382751465, -4.709540367126465 
676, 0.15452957153320312, 0.6790790557861328, -4.993226528167725 
677, -1.6106224060058594, 0.4060792922973633, -3.8357644081115723 
678, -2.0401997566223145, 1.2143430709838867, -4.229670524597168 
679, -1.1356687545776367, 1.1811294555664062, 0.9928004741668701 
680, -0.3105654716491699, -0.5300455093383789, 1.5280170440673828 
681, -0.36449432373046875, 1.1987347602844238, -1.0830507278442383 
682, -1.662682056427002, -0.5909175872802734, -0.7929439544677734 
683, -1.6509461402893066, -0.47192811965942383, -1.0337939262390137 
684, -3.900771141052246, 0.25922250747680664, 1.673910140991211 
685, -3.9332633018493652, 0.47158050537109375, 1.4058997631072998 
686, -4.846958637237549, -2.6560068130493164, 1.5765466690063477 
687, -3.116682529449463, -2.6596078872680664, 1.3599514961242676 
688, 0.002216815948486328, -0.34653377532958984, 2.204195976257324 
689, 1.7845706939697266, 0.18129682540893555, 1.229048728942871 
690, 2.400730609893799, 0.25830888748168945, -2.6816420555114746 
691, 4.49600076675415, 0.8741960525512695, -2.8215012550354004 
692, 8.2854642868042, -0.7607321739196777, 2.993220329284668 
693, -1.9008793830871582, -4.580572605133057, 1.4486236572265625 
694, 1.5783429145812988, 1.4982414245605469, 1.0638961791992188 
695, 2.8868372440338135, 3.834402084350586, 2.8786096572875977 
696, 2.6698567867279053, 1.1512341499328613, 2.726029396057129 
697, 1.9976730346679688, -0.7625548839569092, 2.9585886001586914 
698, 0.7619349956512451, -1.068549633026123, 2.7756948471069336 
699, 0.12438321113586426, -0.04784750938415527, 0.5316505432128906 
700, -0.4384533166885376, -0.038308143615722656, -0.5056314468383789 
701, -0.9486842155456543, -0.9684076309204102, -0.09610271453857422 
702, -0.03424692153930664, 0.11562442779541016, 0.18447303771972656 
703, 0.33935970067977905, -0.10811591148376465, 0.11662864685058594 
704, 0.2679109573364258, -0.25647830963134766, -0.7652149200439453 
705, -0.43779343366622925, -0.6388802528381348, 0.4047985076904297 
706, -0.07122372090816498, -0.5286855697631836, -0.9757270812988281 
707, 0.8711954951286316, -0.3757326602935791, -1.7299795150756836 
708, 0.8910459876060486, -0.12111973762512207, -1.067214012145996 
709, 0.1350080966949463, 0.12762236595153809, -0.17487430572509766 
710, -0.3487863838672638, -0.2907884120941162, 0.7976675033569336 
711, -0.28780966997146606, -0.011406183242797852, 0.4570283889770508 
712, 0.6615039706230164, 0.757082462310791, -1.892904281616211 
713, 0.01059114933013916, 0.07899713516235352, -1.0857410430908203 
714, 0.27298223972320557, -0.3652653694152832, -0.23532962799072266 
715, -0.7421218156814575, -1.2358388900756836, 0.656519889831543 
716, -0.26947712898254395, -0.7356536388397217, 0.26415252685546875 
717, -0.18687617778778076, -0.04185819625854492, -0.15435123443603516 
718, -1.2541191577911377, -0.22240066528320312, 0.17911529541015625 
719, -1.0531773567199707, -0.7706191539764404, -0.2846193313598633 
720, 0.4562840461730957, 0.39666032791137695, -1.4947242736816406 
721, 0.5197434425354004, 0.6304512023925781, -1.682389259338379 
722, 0.11533594131469727, -0.24376201629638672, -0.17559051513671875 
723, -0.23719632625579834, 0.16035223007202148, -0.5936059951782227 
724, -0.19672393798828125, 0.06471872329711914, -0.5440673828125 
725, -0.2689969539642334, 0.04697561264038086, -1.2796716690063477 
726, 0.3381659984588623, 0.31053924560546875, -1.0541582107543945 
727, 0.16489577293395996, 0.2818429470062256, -0.8725404739379883 
728, 0.1337263584136963, 0.08557891845703125, -0.9098110198974609 
729, -0.24608778953552246, -0.029494524002075195, -0.3054189682006836 
730, -0.15251755714416504, -0.06461358070373535, 0.43201732635498047 
731, 0.9326498508453369, 0.13415765762329102, 0.3192110061645508 
732, -2.265645980834961, 0.19183683395385742, -4.625197410583496 
733, 0.1536414623260498, 0.049964189529418945, 2.9989871978759766 
734, -0.48116612434387207, -0.10758519172668457, 1.494736671447754 
735, -0.7623264789581299, -0.5585134029388428, 0.2587127685546875 
736, 0.08507728576660156, -0.034842491149902344, 0.04382514953613281 
737, 0.1805109977722168, 0.409212589263916, -0.15112876892089844 
738, -0.1134033203125, 0.31630992889404297, -0.3696746826171875 
739, -1.0136300325393677, -0.06456470489501953, -2.2483739852905273 
740, 0.9491797685623169, 0.5243897438049316, 0.10229873657226562 
741, 0.9151411056518555, 0.07851433753967285, 1.9208688735961914 
742, 0.8543375730514526, 0.11891770362854004, 1.883366584777832 
743, -0.21723031997680664, -0.1385481357574463, 2.8191585540771484 
744, -0.6536788940429688, -0.08148050308227539, 1.6404151916503906 
745, -0.1215435266494751, 0.4461512565612793, -0.5802936553955078 
746, -0.16380763053894043, 0.1972355842590332, -0.6614055633544922 
747, -0.44844138622283936, 0.03820323944091797, -0.5973834991455078 
748, -0.46767520904541016, -0.07024860382080078, -0.5392999649047852 
749, -0.07690680027008057, 0.06239652633666992, -0.19891929626464844 
