#Measurement, Acceleration X, Acceleration Y, Acceleration Z 
1, 0, 0, 0 
2, -0.2179720401763916, -0.08779275417327881, -0.042797088623046875 
3, -2.2647087574005127, 0.5724024772644043, 2.7078933715820312 
4, -0.3393048048019409, 1.8758759498596191, -0.7666711807250977 
5, -0.08589348196983337, 1.439624547958374, -0.6623144149780273 
6, -0.44015055894851685, 1.2069611549377441, -0.31453895568847656 
7, -1.163718819618225, 1.768244981765747, 0.5696725845336914 
8, 0.05484730005264282, 1.952486276626587, 2.400763511657715 
9, 0.15731710195541382, 0.9907610416412354, 2.4087982177734375 
10, -0.5834597945213318, 0.27019333839416504, 2.119572639465332 
11, -3.931537389755249, 1.0207133293151855, -1.1895265579223633 
12, -0.5504944324493408, 5.808016300201416, -5.903073310852051 
13, -6.130555152893066, 1.547717571258545, 1.0724287033081055 
14, -5.349028587341309, 1.0977740287780762, -2.439023971557617 
15, -0.7215743064880371, 3.2567076683044434, -3.767087459564209 
16, -1.0180988311767578, 0.9674344062805176, 0.15697526931762695 
17, -1.1519997119903564, -0.1952652931213379, 3.056276321411133 
18, -0.12011528015136719, -0.2480454444885254, 2.334909439086914 
19, 0.6010458469390869, -0.17434024810791016, 1.1101770401000977 
20, 0.3435935974121094, -0.20049619674682617, -0.3480558395385742 
21, 0.19260120391845703, 0.22772693634033203, 0.15007591247558594 
22, 1.4133951663970947, -0.2404942512512207, 0.5721044540405273 
23, 2.327524185180664, -0.1869668960571289, 0.18288612365722656 
24, 0.7305445671081543, -0.1736454963684082, -1.7001619338989258 
25, -1.4098320007324219, 0.3426342010498047, 0.05805683135986328 
26, -0.48787498474121094, 0.5017461776733398, -0.3965487480163574 
27, -2.3154280185699463, 1.822291374206543, -0.5840368270874023 
28, 1.2322502136230469, 1.6368117332458496, -0.9189300537109375 
29, 0.18849778175354004, 0.04957294464111328, -3.372408866882324 
30, 0.05771207809448242, 0.07346439361572266, -3.335437774658203 
31, 2.011855363845825, -0.06373929977416992, 1.1380176544189453 
32, 2.038414716720581, 0.012168407440185547, 1.4082942008972168 
33, 1.8633520603179932, -0.9463458061218262, 1.43284273147583 
34, 1.4124844074249268, -0.4285149574279785, 1.5085887908935547 
35, 0.9181272983551025, -0.9264349937438965, 0.9756507873535156 
36, 1.197864055633545, -0.23634052276611328, -0.2663435935974121 
37, 1.2085309028625488, 1.5613055229187012, 0.7725815773010254 
38, 1.7613744735717773, 4.2703633308410645, -0.4845280647277832 
39, 1.7431280612945557, 2.9229841232299805, -2.427178382873535 
40, 2.387889862060547, 3.0408935546875, -2.024444580078125 
41, 2.788207530975342, 2.7420544624328613, -3.0245962142944336 
42, 3.183793067932129, 1.149348258972168, -0.5894374847412109 
43, 3.364572525024414, -1.1368341445922852, -0.241241455078125 
44, 4.821178436279297, -4.773947238922119, -4.14322566986084 
45, 4.737611770629883, -1.1447572708129883, -3.1485729217529297 
46, 0.9632792472839355, -1.252838134765625, 3.885357618331909 
47, -0.8880705833435059, -5.935439109802246, 5.370980262756348 
48, 3.8006978034973145, -6.640599250793457, 6.74301290512085 
49, 1.9355411529541016, -3.9089536666870117, -1.86480712890625 
50, 1.7580230236053467, -1.9764442443847656, -1.5349907875061035 
51, -0.02002263069152832, -1.665201187133789, 6.3063154220581055 
52, -0.3042992353439331, -1.0345659255981445, 5.867060661315918 
53, -1.0517995357513428, -0.11203765869140625, 4.151881694793701 
54, -1.2471556663513184, 0.9576492309570312, 4.084982872009277 
55, -2.280022382736206, 1.4659242630004883, 1.3492529392242432 
56, -2.402986526489258, 1.2654457092285156, -0.09324193000793457 
57, -2.0115647315979004, 1.725235939025879, -0.4605928659439087 
58, -1.9489716291427612, 2.2529611587524414, -0.38184356689453125 
59, -1.8241872787475586, 2.4197072982788086, -0.6748088598251343 
60, -1.9832159280776978, 2.487521171569824, -0.5602773427963257 
61, -2.048189878463745, 2.5465307235717773, 0.3198375701904297 
62, -1.893486738204956, 2.569596290588379, 0.8787578344345093 
63, -1.8911547660827637, 2.779581069946289, 1.4019412994384766 
64, -2.226949453353882, 3.290541648864746, 0.8733892440795898 
65, -2.586331844329834, 3.5563411712646484, 0.42676758766174316 
66, -2.4073877334594727, 3.3027029037475586, -0.17919182777404785 
67, -2.0326085090637207, 2.815587043762207, -1.1330198049545288 
68, -2.5897269248962402, 0.826756477355957, -1.8876551389694214 
69, 0.9459694027900696, 1.2126731872558594, -3.7292981147766113 
70, -2.9225714206695557, 0.7903976440429688, 0.9542140960693359 
71, -2.1284453868865967, -0.3643074035644531, 1.3862543106079102 
72, -0.5107251405715942, -0.9330987930297852, -0.8268778324127197 
73, 0.4159524440765381, 0.13440418243408203, -2.332612991333008 
74, -0.4389234185218811, 0.26747894287109375, -2.9685420989990234 
75, -0.22150206565856934, -0.27939510345458984, -0.3917068839073181 
76, 0.4760704040527344, -1.465031623840332, 3.0212905406951904 
77, 1.495622158050537, -2.1843624114990234, 0.3775749206542969 
78, 2.194478988647461, -2.5150222778320312, -1.8153116703033447 
79, 2.388932704925537, -3.336428642272949, -1.7947866916656494 
80, 4.702865123748779, -4.766452789306641, -2.905256509780884 
81, 1.7770845890045166, -3.6829452514648438, -1.3300126791000366 
82, 0.4484155774116516, -3.454421043395996, -1.3874014616012573 
83, 1.2007746696472168, -3.9600467681884766, -2.525373935699463 
84, 1.3679910898208618, -4.02353572845459, -0.579247772693634 
85, 0.8729653358459473, -3.118441581726074, 0.7691793441772461 
86, 1.1393282413482666, -3.0872278213500977, 3.1773386001586914 
87, 2.0431206226348877, -2.935786247253418, 2.179649829864502 
88, 0.850529670715332, -0.5933628082275391, -0.6945581436157227 
89, 1.0719904899597168, 1.4130373001098633, -2.9268646240234375 
90, -1.132376790046692, 2.5627498626708984, -2.5743114948272705 
91, -6.711198329925537, 8.6270170211792, 0.11314833164215088 
92, -1.9109416007995605, 9.458361625671387, 0.22112655639648438 
93, -1.7947059869766235, 5.34329891204834, -1.467383861541748 
94, -1.8778387308120728, 5.276799201965332, -1.4765801429748535 
95, -0.05529367923736572, -2.148683547973633, 5.742344856262207 
96, -0.055027008056640625, 1.3288688659667969, -4.28872537612915 
97, 1.5442368984222412, -0.3356046676635742, -3.8576974868774414 
98, 1.5442368984222412, -0.3356046676635742, -3.8576974868774414 
99, 0.39550089836120605, -0.8387775421142578, 0.42171669006347656 
100, 0.39550089836120605, -0.8387775421142578, 0.42171669006347656 
101, -1.8881926536560059, -7.190655708312988, -0.5470950603485107 
102, 0.25318384170532227, -8.045095443725586, -0.08214402198791504 
103, 0.7336253523826599, -6.986961364746094, -2.0672030448913574 
104, 0.14124774932861328, -2.583395004272461, -2.834200382232666 
105, 2.928171396255493, -3.394547462463379, 2.4635298252105713 
106, -2.052152156829834, -4.522421836853027, 4.576630115509033 
107, -0.35089027881622314, -1.9987592697143555, 7.79840087890625 
108, 0.8546860814094543, -2.247631072998047, -1.571069359779358 
109, -0.9030145406723022, 0.3844127655029297, -3.5196926593780518 
110, 2.1426451206207275, -1.2282838821411133, -4.074845790863037 
111, 1.8454558849334717, -1.2431526184082031, -4.253689765930176 
112, -14.923348426818848, 26.80156135559082, 2.3262698650360107 
113, -2.0034592151641846, 6.178431510925293, -0.6001732349395752 
114, 3.06067156791687, 1.0683956146240234, 0.7575847506523132 
115, 3.7412562370300293, 3.484830856323242, 3.0630242824554443 
116, 7.403328895568848, 3.625462532043457, -0.0774461030960083 
117, 2.961275577545166, 1.2006893157958984, -0.13230884075164795 
118, -0.5529654026031494, -0.5073537826538086, 1.8118619918823242 
119, 1.0238916873931885, 0.08429431915283203, 1.3490526676177979 
120, 1.4081227779388428, 1.6959123611450195, -1.97506582736969 
121, 1.5626490116119385, -0.8577880859375, 0.35027003288269043 
122, 1.6834826469421387, -0.9264326095581055, -0.1281735897064209 
123, 0.9294943809509277, -0.7100896835327148, 1.1180915832519531 
124, 0.007093906402587891, 0.4383230209350586, -0.37828147411346436 
125, -0.5329575538635254, 0.9115829467773438, -1.8069299459457397 
126, -0.421952486038208, 0.4276742935180664, -0.5453493595123291 
127, 0.16349732875823975, -0.12938213348388672, -0.21133184432983398 
128, 0.969200849533081, 0.15451908111572266, 0.5140691995620728 
129, -0.39633262157440186, -0.2832069396972656, 0.5679829120635986 
130, 0.7242660522460938, 0.3322267532348633, -0.05926239490509033 
131, 0.8852823972702026, 0.4294242858886719, 0.1519404649734497 
132, 0.874946117401123, 0.43029308319091797, 0.16917359828948975 
133, 1.0141066312789917, 0.47091102600097656, 0.24975037574768066 
134, 1.04978609085083, 0.4387779235839844, 0.37955915927886963 
135, 1.2484424114227295, 0.4303426742553711, 0.4277212619781494 
136, 1.3650407791137695, 0.48360157012939453, 0.5311022996902466 
137, 1.5548758506774902, 0.4250192642211914, -0.7090420722961426 
138, 1.6102244853973389, 0.46321582794189453, -0.32144951820373535 
139, 1.4003498554229736, 0.12203311920166016, 0.5630871057510376 
140, 1.0557429790496826, -0.38424110412597656, 0.1776583194732666 
141, 0.3667323589324951, -0.9212255477905273, -0.29201436042785645 
142, -0.14946365356445312, -1.2232017517089844, -0.316725492477417 
143, -0.39998936653137207, -1.1396093368530273, -0.43502187728881836 
144, -0.3657362461090088, -0.7318258285522461, -0.6519203186035156 
145, -0.04104971885681152, -0.34852027893066406, -1.4304752349853516 
146, -0.7338354587554932, -0.5119590759277344, -2.635540723800659 
147, -0.9648075103759766, -0.5176830291748047, -1.5821902751922607 
148, -0.21904754638671875, -0.7214651107788086, -0.9697561264038086 
149, 0.4194343090057373, -0.8416538238525391, -0.517235279083252 
150, 1.5884885787963867, -0.8884649276733398, -0.21160650253295898 
151, 1.5948114395141602, -0.894322395324707, -0.23441362380981445 
152, 1.7732620239257812, -1.0862293243408203, -0.2202317714691162 
153, 1.8249690532684326, -0.834477424621582, -0.14374852180480957 
154, 1.9535984992980957, -0.4874382019042969, 0.014552831649780273 
155, 2.2055552005767822, -0.7526693344116211, -0.0315244197845459 
156, 2.3347835540771484, -1.1520805358886719, -0.11276936531066895 
157, 2.1530704498291016, -1.1728601455688477, 0.12659978866577148 
158, 1.8782751560211182, -0.6666936874389648, 0.24584555625915527 
159, 2.0602800846099854, -0.5486812591552734, 0.6877951622009277 
160, 2.197067975997925, -0.6454257965087891, 1.3496601581573486 
161, 1.7356629371643066, -0.6928586959838867, 1.0143139362335205 
162, 1.3988816738128662, -0.5561332702636719, 1.1352691650390625 
163, 1.440197467803955, -0.0558013916015625, 2.2839183807373047 
164, 2.0763540267944336, 0.8755979537963867, 2.4415924549102783 
165, 2.166088104248047, 1.8603830337524414, 1.0381650924682617 
166, 1.9419660568237305, 2.642561912536621, 0.20165538787841797 
167, 1.7517375946044922, 2.2553977966308594, -0.018240928649902344 
168, 0.016265392303466797, 1.1523160934448242, 0.29633498191833496 
169, -2.047988176345825, 0.768488883972168, 0.2429792881011963 
170, -3.812631130218506, 5.315219879150391, 1.6846668720245361 
171, -4.363258361816406, 5.722970962524414, 0.1499338150024414 
172, -4.2568840980529785, 5.672174453735352, 0.13231897354125977 
173, -2.8785269260406494, 1.9046859741210938, 0.3456876277923584 
174, -0.5770823955535889, -2.621243476867676, -0.6903693675994873 
175, -0.935171365737915, 0.17444896697998047, -1.4946739673614502 
176, -1.3879668712615967, 1.0410223007202148, 0.7612348794937134 
177, -1.3944281339645386, 0.3762025833129883, 0.9138652086257935 
178, -1.3731533288955688, -0.7581558227539062, 0.6291755437850952 
179, -0.9110976457595825, -1.3476810455322266, 0.43219220638275146 
180, -0.37499427795410156, -1.392003059387207, -0.40055716037750244 
181, -0.20963120460510254, -1.1445226669311523, -1.220842957496643 
182, -0.6473914384841919, -0.7447347640991211, -0.5771915912628174 
183, -1.4339277744293213, -0.099365234375, -0.026934385299682617 
184, -1.746643304824829, 0.9039363861083984, -0.2230236530303955 
185, -1.7907841205596924, 1.0626964569091797, -0.05243635177612305 
186, -1.541226863861084, 0.26953887939453125, -0.11923587322235107 
187, -1.416088581085205, -0.6496648788452148, -0.1552276611328125 
188, -0.8185055255889893, -0.6445655822753906, -0.4629777669906616 
189, -0.17692190408706665, -0.46358585357666016, -0.9489115476608276 
190, 0.16240715980529785, -0.03425025939941406, -0.5541988611221313 
191, -0.21821963787078857, 0.6780776977539062, 0.3109060525894165 
192, -0.18815505504608154, 0.6781272888183594, 0.3358711004257202 
193, -0.4164084196090698, 0.5802249908447266, 0.4442172050476074 
194, -0.37657731771469116, 0.2903270721435547, 0.5037575960159302 
195, 0.17040368914604187, -0.09444713592529297, 0.6319683790206909 
196, 0.4538770318031311, -0.2108449935913086, 0.9066563844680786 
197, 0.45855045318603516, -0.21172046661376953, 0.8942791223526001 
198, 1.1088312864303589, 0.2650470733642578, 1.7632955312728882 
199, 1.1510738134384155, 0.3402080535888672, 1.8150620460510254 
200, 0.9723891019821167, 0.05305957794189453, 1.8704923391342163 
201, 0.8212181329727173, -0.1939859390258789, 2.3120028972625732 
202, 0.7736800312995911, -0.0374603271484375, 2.858489513397217 
203, 0.6140866875648499, 0.19706249237060547, 3.1859545707702637 
204, 0.7359040975570679, -0.04159259796142578, 3.4194226264953613 
205, 1.072371482849121, 0.03386878967285156, 3.1909167766571045 
206, 1.1879639625549316, 0.24938488006591797, 2.360954761505127 
207, 0.8286696076393127, 0.6031045913696289, 1.534315824508667 
208, 0.9377985000610352, 1.2478342056274414, 1.3983254432678223 
209, 1.4532208442687988, 1.8190994262695312, 0.9506704807281494 
210, 2.1438329219818115, 2.1060714721679688, 0.09001326560974121 
211, 1.5161950588226318, 0.968897819519043, -1.9930205345153809 
212, 1.52101731300354, 1.0176506042480469, -1.8164403438568115 
213, 0.10977143049240112, -0.15226364135742188, -2.2382521629333496 
214, -1.243882656097412, -1.0562076568603516, -2.537720203399658 
215, -2.538722276687622, -1.4676942825317383, -2.8502416610717773 
216, -2.5374367237091064, -0.05927467346191406, -3.509890079498291 
217, -0.6002296209335327, 2.7363319396972656, -2.646808624267578 
218, -0.6330520510673523, 1.6350107192993164, -2.129704475402832 
219, 0.0324283242225647, -0.1553955078125, -1.127173662185669 
220, 0.4912201166152954, -2.284518241882324, -0.15464568138122559 
221, 1.1762077808380127, -3.3037376403808594, 0.2500803470611572 
222, 0.5287578701972961, -2.7560806274414062, 0.7876064777374268 
223, 0.3953344225883484, -2.4322614669799805, 1.173602819442749 
224, 0.29342031478881836, -2.272960662841797, 0.8943498134613037 
225, -0.09287631511688232, -1.6486282348632812, 0.06124091148376465 
226, -0.5201966762542725, -0.6774082183837891, -0.8331797122955322 
227, -1.171134114265442, 0.4262218475341797, -1.5020041465759277 
228, -1.3460872173309326, 1.273451805114746, -1.1634016036987305 
229, -1.0888102054595947, 1.727452278137207, -0.40913891792297363 
230, -0.6760232448577881, 1.6397008895874023, -0.22490930557250977 
231, 0.04539132118225098, 0.8610820770263672, -1.3379268646240234 
232, 0.0009660720825195312, 0.8612871170043945, -1.3522999286651611 
233, 0.0988776683807373, 0.3070802688598633, -1.0018234252929688 
234, 0.3774740695953369, -0.24538135528564453, -0.5282914638519287 
235, 0.2535221576690674, -0.8350868225097656, 0.34345173835754395 
236, -0.30827784538269043, -0.6392784118652344, 0.33853769302368164 
237, -0.5095734596252441, -0.3092689514160156, -0.10800409317016602 
238, -0.2441577911376953, -0.02105426788330078, -0.44161438941955566 
239, 0.1847844123840332, 0.0907449722290039, -0.5289075374603271 
240, 0.34845542907714844, -0.009087562561035156, -0.466977596282959 
241, 0.432344913482666, -0.14377689361572266, -0.3642721176147461 
242, 0.7597153186798096, -0.08244991302490234, 0.012456655502319336 
243, 0.5086259841918945, -0.380767822265625, 0.25554800033569336 
244, -0.0367581844329834, 0.970637321472168, -0.7126479148864746 
245, 0.308058500289917, -1.2157907485961914, 0.7275488376617432 
246, 0.7982351779937744, -0.8058261871337891, 0.3380005359649658 
247, 0.6871123313903809, -0.39470863342285156, -0.7972021102905273 
248, 0.4318070411682129, 0.051108360290527344, -0.7822275161743164 
249, -0.22193050384521484, 0.3559989929199219, -0.7625296115875244 
250, -0.18960928916931152, 0.13945865631103516, -0.3410313129425049 
251, 0.5125446319580078, -0.7423810958862305, -0.12333059310913086 
252, 0.4807748794555664, -0.7369594573974609, -0.15979695320129395 
253, 0.578951358795166, -0.8810882568359375, -0.24744534492492676 
254, 0.7004482746124268, -0.9104900360107422, -0.0814967155456543 
255, 0.7754149436950684, -0.6957635879516602, -0.5066452026367188 
256, 0.19443345069885254, -0.7174472808837891, -0.6520109176635742 
257, -0.3135225772857666, -0.8990268707275391, -0.4058194160461426 
258, -0.43156957626342773, -0.9869909286499023, -0.3336753845214844 
259, -0.08564496040344238, -0.9237356185913086, -0.49022161960601807 
260, 0.4439101219177246, -0.8848295211791992, -0.6847041845321655 
261, 0.7754707336425781, -0.8896245956420898, -0.6514853239059448 
262, 0.6615819931030273, -1.2430601119995117, -0.8313745260238647 
263, 0.4307897090911865, -1.5614099502563477, -0.645099401473999 
264, 0.49825382232666016, -1.6128568649291992, -0.08965492248535156 
265, 0.7786159515380859, -0.6880369186401367, 0.4800844192504883 
266, 1.3175361156463623, 0.7370271682739258, 0.5379201173782349 
267, 1.9367396831512451, 1.3048315048217773, -0.040875911712646484 
268, 2.171267509460449, 1.3036785125732422, -0.27925658226013184 
269, 2.145003080368042, 1.5032434463500977, 0.7042920589447021 
270, 1.3300001621246338, 1.903029441833496, 1.8095542192459106 
271, -2.9968268871307373, 1.349935531616211, -0.021919846534729004 
272, -3.954545259475708, -0.7223072052001953, 2.176105499267578 
273, -3.8930742740631104, -0.7412929534912109, 2.1242446899414062 
274, -2.655949831008911, -1.337392807006836, 3.2323389053344727 
275, -2.707974433898926, 8.648340225219727, 1.2606364488601685 
276, -2.707974433898926, 8.648340225219727, 1.2606364488601685 
277, -1.3058199882507324, -4.078830718994141, -1.7271828651428223 
278, -2.9860680103302, -1.950282096862793, -3.2177674770355225 
279, -3.6920220851898193, 1.9888935089111328, -0.3828158378601074 
280, -3.822279930114746, 3.495110511779785, 2.9286723136901855 
281, -2.612070083618164, 2.567336082458496, 2.878042221069336 
282, -2.612070083618164, 2.567336082458496, 2.878042221069336 
283, -1.6086432933807373, -1.2328205108642578, 0.847252607345581 
284, -1.1787370443344116, -1.8043336868286133, -0.024127840995788574 
285, -0.27586865425109863, -1.3721542358398438, -1.4935722351074219 
286, 0.21184372901916504, -0.5575246810913086, -1.9816597700119019 
287, -0.2121882438659668, -0.06833171844482422, -0.7905702590942383 
288, -1.3117929697036743, 0.020547866821289062, 0.38014066219329834 
289, -1.6216670274734497, 0.31941795349121094, 0.10177350044250488 
290, -1.2963321208953857, 0.08379173278808594, -0.24154126644134521 
291, -1.0703036785125732, -0.9305353164672852, -0.9708606004714966 
292, -1.04939866065979, -0.9244413375854492, -0.9353728294372559 
293, -0.598757266998291, 0.44156646728515625, -0.20890140533447266 
294, -0.5899103879928589, 0.4480905532836914, -0.15154850482940674 
295, 0.35324692726135254, 0.20725059509277344, 0.1360570192337036 
296, 0.0877758264541626, -0.03167533874511719, 0.060511231422424316 
297, -0.4299074411392212, 0.13263893127441406, 1.3037723302841187 
298, -0.0003066062927246094, 0.8924493789672852, 3.6828956604003906 
299, 1.928106665611267, 0.874821662902832, 4.81982946395874 
300, 1.797716498374939, -1.4764089584350586, 3.7029242515563965 
301, -0.0764082670211792, -3.32608699798584, 1.3792712688446045 
302, -1.835889220237732, -3.509579658508301, -0.3820154666900635 
303, -2.431337356567383, -2.831507682800293, -1.6376211643218994 
304, -0.5981656312942505, -0.9238252639770508, -0.7920138835906982 
305, 1.4626175165176392, 0.6347599029541016, 0.34972190856933594 
306, 2.146430015563965, 0.3359260559082031, 0.7059135437011719 
307, 1.3070526123046875, -1.4294252395629883, 2.011732339859009 
308, 0.18977737426757812, -3.302490234375, 2.7460012435913086 
309, -0.770714521408081, -4.618586540222168, 2.2562952041625977 
310, -1.4475700855255127, -5.478889465332031, -0.12185525894165039 
311, -1.5274989604949951, -0.8071994781494141, -1.1591386795043945 
312, -1.597421646118164, -0.6115026473999023, -0.8865914344787598 
313, -1.4520785808563232, -3.8669018745422363, 3.4623360633850098 
314, -1.6057372093200684, -3.5441336631774902, 3.782991409301758 
315, 0.16698503494262695, -3.3623604774475098, 0.7288455963134766 
316, -0.719531774520874, -2.9973154067993164, 1.2576789855957031 
317, -2.5003154277801514, -3.330881118774414, 1.110321044921875 
318, -3.574099540710449, -4.1736369132995605, 2.7728395462036133 
319, -0.9480917453765869, -3.185084342956543, 1.069298267364502 
320, -0.4873619079589844, -1.1776652336120605, 0.7863254547119141 
321, -0.8563439846038818, 0.8823156356811523, 0.09199714660644531 
322, -1.1253936290740967, 2.2595343589782715, -0.7548389434814453 
323, 0.07461929321289062, 0.7175893783569336, 0.7738990783691406 
324, 1.0314319133758545, 0.14643120765686035, 1.072718620300293 
325, 1.2049658298492432, 0.037084341049194336, 3.529355049133301 
326, 0.44573545455932617, 0.1438823938369751, 3.2747325897216797 
327, -0.21346545219421387, 1.0295863151550293, -0.23477840423583984 
328, -0.7835133075714111, 0.3894670605659485, -0.7994356155395508 
329, -0.4988565444946289, 1.9483370780944824, -2.0794897079467773 
330, 1.8816699981689453, 1.0527154207229614, -5.084341049194336 
331, 2.732699155807495, -2.2239749431610107, -5.743413925170898 
332, 2.5422494411468506, -3.9012510776519775, -8.652458190917969 
333, 2.550619602203369, -3.507965087890625, -8.751847267150879 
334, 2.485339641571045, -4.427538871765137, -12.876446723937988 
335, 5.856523513793945, -6.383955955505371, -17.50739288330078 
336, 4.771450996398926, -6.7288336753845215, -16.59569549560547 
337, 3.5118045806884766, -6.138370513916016, -15.125208854675293 
338, 4.268299579620361, -5.120389938354492, -13.171284675598145 
339, 2.8262245655059814, -5.19033145904541, -9.720929145812988 
340, -0.11356091499328613, -5.108080863952637, -6.1974029541015625 
341, 0.16314125061035156, -4.0394134521484375, -4.302189826965332 
342, 1.3546230792999268, -3.5078210830688477, -3.4476537704467773 
343, 1.4880809783935547, -3.7137231826782227, -2.344524383544922 
344, 0.692317008972168, -3.388467311859131, -0.9817142486572266 
345, 1.1244122982025146, -1.5053954124450684, -0.4153470993041992 
346, 1.5113450288772583, 1.2901571989059448, -0.9713354110717773 
347, 0.49603354930877686, 3.6495769023895264, 1.51104736328125 
348, -0.9620603322982788, 0.5465226173400879, 0.40186119079589844 
349, -1.3549047708511353, -1.9897241592407227, -2.242276191711426 
350, -1.739586353302002, -1.3919014930725098, -3.6415205001831055 
351, -2.0728681087493896, -0.3397507667541504, 2.7195348739624023 
352, -2.169839382171631, -0.8246870040893555, 2.322885513305664 
353, -1.5466996431350708, -0.6508893966674805, -0.3310270309448242 
354, 1.2685099840164185, 0.3381047248840332, -9.322705268859863 
355, -0.3093400001525879, -1.3297524452209473, -11.843517303466797 
356, 1.977306842803955, 5.212063789367676, -3.722585678100586 
357, 4.055598735809326, 9.766560554504395, -0.605919361114502 
358, 3.669482707977295, 11.633703231811523, -4.885595321655273 
359, -1.97922945022583, 0.8669614791870117, -9.182944297790527 
360, -11.434741973876953, -17.16398811340332, -2.7975265979766846 
361, -10.181656837463379, -16.54031753540039, 20.69020652770996 
362, -1.7386691570281982, -11.759682655334473, 24.192733764648438 
363, 18.45442771911621, -4.0221967697143555, 5.96366548538208 
364, 19.978979110717773, -2.8869924545288086, 4.650647163391113 
365, -9.564838409423828, -8.12224006652832, -27.203248977661133 
366, -23.555452346801758, -11.59636116027832, -4.793586730957031 
367, -11.808298110961914, -6.007661819458008, 15.703526496887207 
368, -1.5880796909332275, -3.7589893341064453, 6.6876606941223145 
369, 2.8560726642608643, -8.566449165344238, 1.1471468210220337 
370, 4.30128288269043, -8.271135330200195, 2.653773307800293 
371, 5.9596757888793945, -8.598471641540527, 2.288850784301758 
372, 2.5009071826934814, -10.274383544921875, -0.4742211401462555 
373, 2.4601528644561768, -10.221339225769043, -0.3466642200946808 
374, -4.475409507751465, -9.57885456085205, 3.269660472869873 
375, -4.44200325012207, -9.539653778076172, 3.376692533493042 
376, -4.3026123046875, -9.280118942260742, 2.2290737628936768 
377, -3.3297314643859863, -8.948722839355469, 1.8763930797576904 
378, -2.45259165763855, -8.408976554870605, 1.8631829023361206 
379, -1.9042913913726807, -7.7359819412231445, 2.065743923187256 
380, -1.7834925651550293, -7.253166198730469, 2.559955596923828 
381, -2.1836328506469727, -7.3988189697265625, 2.23479962348938 
382, -2.542327880859375, -7.75222110748291, 1.4197509288787842 
383, -2.9734604358673096, -8.275384902954102, 0.336797833442688 
384, -3.028329372406006, -8.489185333251953, -0.25692152976989746 
385, -1.6561951637268066, -6.426314353942871, 1.3195995092391968 
386, -0.8131861686706543, -4.740666389465332, 1.5340725183486938 
387, -0.2513716220855713, -3.1555662155151367, 2.096689224243164 
388, -0.6880388259887695, -3.111018180847168, 3.490110397338867 
389, -1.5073294639587402, -5.0861101150512695, 5.271350383758545 
390, -2.5498857498168945, -8.062182426452637, 5.30828857421875 
391, 7.6389923095703125, -7.617218971252441, 13.765178680419922 
392, 7.680142402648926, -7.303584098815918, 14.295352935791016 
393, 13.35219669342041, 7.3436479568481445, -4.175279140472412 
394, 1.6460118293762207, 29.838531494140625, -33.152496337890625 
395, 2.787216901779175, 19.832447052001953, 15.625001907348633 
396, 9.509102821350098, -31.60244369506836, 13.0054292678833 
397, 7.935651779174805, -42.05023193359375, -1.5313138961791992 
398, 1.0463439226150513, -3.0679049491882324, 12.693307876586914 
399, -3.2698605060577393, 11.840991973876953, 4.706774711608887 
400, -6.268937110900879, 11.48344612121582, -14.358466148376465 
401, -1.1487791538238525, 0.16687750816345215, -7.622154235839844 
402, 3.5968780517578125, -13.134035110473633, 1.7759933471679688 
403, -0.2850039005279541, -3.3173139095306396, 0.7892370223999023 
404, -1.4894533157348633, 0.30429553985595703, -0.45195484161376953 
405, 1.9410138130187988, -1.1405935287475586, -1.1278438568115234 
406, 1.5137574672698975, -1.2909144163131714, -0.8717823028564453 
407, -1.2169744968414307, -1.3155514001846313, -3.0997180938720703 
408, 0.20048993825912476, -1.5717041492462158, -3.431760787963867 
409, 1.4111841917037964, -1.7240300178527832, -1.2975072860717773 
410, 1.5473304986953735, -2.6375818252563477, -0.6130504608154297 
411, 0.548913300037384, -1.2339086532592773, -4.692397117614746 
412, 0.6375029683113098, -0.7978427410125732, -4.804844856262207 
413, -0.12762582302093506, -2.4681215286254883, -8.615534782409668 
414, -0.1155746579170227, -5.853600978851318, -10.392428398132324 
415, 4.451087474822998, -8.809513092041016, -11.608278274536133 
416, 4.259868144989014, -7.809284210205078, -14.702857971191406 
417, 4.249403953552246, -7.839629173278809, -14.609916687011719 
418, 4.944657325744629, -4.280941009521484, -16.563289642333984 
419, 2.7496564388275146, -3.1609039306640625, -13.812860488891602 
420, 1.0978240966796875, -3.081341028213501, -10.780116081237793 
421, 0.33491986989974976, -2.5382704734802246, -8.346997261047363 
422, 0.6768737435340881, -2.575040102005005, -7.121363639831543 
423, 1.7150274515151978, -2.5664658546447754, -5.766752243041992 
424, 1.6986589431762695, -3.2286524772644043, -4.003908157348633 
425, 1.5687386989593506, -3.4446661472320557, -2.0691986083984375 
426, 1.2374078035354614, -3.0870232582092285, -0.9128866195678711 
427, 0.7102192640304565, -2.808645248413086, -1.1343584060668945 
428, -2.388183116912842, -1.707798719406128, -1.0159215927124023 
429, -3.7718169689178467, -0.017412424087524414, -0.4158802032470703 
430, -3.0276882648468018, -1.4053406715393066, -1.0863227844238281 
431, -1.5879418849945068, -2.9888157844543457, -1.0097646713256836 
432, -0.6435988545417786, -4.305996417999268, 2.9256811141967773 
433, -0.7758623361587524, -4.7601399421691895, 2.5528879165649414 
434, -0.9515343904495239, -2.3944225311279297, 4.393098831176758 
435, 3.3447041511535645, 5.735782146453857, -5.354256629943848 
436, 2.8790054321289062, 7.741236209869385, -24.30218505859375 
437, 3.4266462326049805, 6.371007442474365, -2.7552504539489746 
438, 2.138634443283081, 6.433865547180176, -1.0479979515075684 
439, -2.055953025817871, 3.3021297454833984, -0.15615463256835938 
440, -2.6334667205810547, 0.8505992889404297, 0.14566779136657715 
441, -1.293433666229248, -4.344233512878418, 0.07310295104980469 
442, -0.2921309471130371, -11.149096488952637, 0.3636484146118164 
443, -0.014576911926269531, -12.585318565368652, 4.064176082611084 
444, 4.498953819274902, -6.769587516784668, 21.58904266357422 
445, 9.327020645141602, -3.958247184753418, 28.88404655456543 
446, 11.908556938171387, -7.33079719543457, 14.246332168579102 
447, -0.1635444164276123, -10.354430198669434, -6.406301498413086 
448, -13.479421615600586, -13.63498306274414, -27.8209171295166 
449, -12.251949310302734, -10.912821769714355, -8.816194534301758 
450, -3.088226318359375, -8.378254890441895, 3.1761040687561035 
451, 0.5584044456481934, -8.142448425292969, 6.639070987701416 
452, -0.5424137115478516, -5.720860481262207, 6.56789493560791 
453, -0.43721628189086914, -5.739020347595215, 6.426233768463135 
454, 0.4499189853668213, -9.887920379638672, 3.152026414871216 
455, 0.483290433883667, -9.8579683303833, 3.113877773284912 
456, -1.6002769470214844, -10.684782028198242, 2.492539644241333 
457, -1.3917393684387207, -7.969246864318848, 1.7702178955078125 
458, -1.3917393684387207, -7.969246864318848, 1.7702178955078125 
459, -1.234367847442627, -7.752614974975586, 0.3623077869415283 
460, -2.4199907779693604, -8.236433982849121, 2.443626880645752 
461, -2.846052885055542, -8.145308494567871, 2.5435516834259033 
462, -2.981081485748291, -8.301865577697754, 1.831295132637024 
463, -2.828300952911377, -8.075892448425293, 1.3145751953125 
464, -1.9714839458465576, -7.106077194213867, 1.0679370164871216 
465, -1.1628501415252686, -5.677829742431641, 1.7162370681762695 
466, -0.9963514804840088, -4.343166351318359, 2.8105928897857666 
467, -0.9865262508392334, -3.189894676208496, 3.3772382736206055 
468, -0.968120813369751, -2.547299385070801, 3.3970448970794678 
469, -1.072777509689331, -2.5982179641723633, 4.2615861892700195 
470, -1.431284785270691, -3.2390785217285156, 5.335732936859131 
471, -1.1155734062194824, -4.091575622558594, 3.053779125213623 
472, 0.9686152935028076, -6.170875072479248, 1.9845952987670898 
473, 8.88098430633545, -9.463129043579102, 14.890264511108398 
474, 13.633797645568848, 0.14226055145263672, -2.819162368774414 
475, 0.7945797443389893, 25.67953872680664, -33.38310623168945 
476, 9.111404418945312, 32.079750061035156, 1.8530349731445312 
477, -12.243057250976562, -10.148918151855469, 12.476991653442383 
478, 1.2255709171295166, -44.445648193359375, -1.1189050674438477 
479, -5.785034656524658, -14.63021469116211, 2.4142041206359863 
480, -2.9296207427978516, 8.998703002929688, 7.952357292175293 
481, -0.5371463298797607, 8.086858749389648, -2.537217617034912 
482, 3.0124735832214355, 7.72299861907959, -12.363884925842285 
483, 2.9103665351867676, 0.2572174072265625, -5.131603240966797 
484, 1.2277392148971558, -8.466158866882324, -1.3526954650878906 
485, -3.025958776473999, -4.990106582641602, 4.118427276611328 
486, -1.7273412942886353, -2.7511301040649414, 2.010472297668457 
487, 0.3057762384414673, -2.059799909591675, 0.7019863128662109 
488, 0.100014328956604, -3.133739709854126, -0.3469858169555664 
489, 0.08146953582763672, -1.5836701393127441, -4.78261661529541 
490, 3.2769689559936523, -4.217813014984131, -3.8123788833618164 
491, 2.1526613235473633, -2.8766260147094727, -5.07314395904541 
492, 0.9614747762680054, -2.8884265422821045, -6.524432182312012 
493, 0.998749852180481, -2.601332426071167, -6.579792022705078 
494, 1.4656686782836914, -4.513822555541992, -10.312504768371582 
495, 3.093899726867676, -6.252690315246582, -12.897735595703125 
496, 3.556156635284424, -7.568573474884033, -15.830175399780273 
497, 3.5471267700195312, -7.604489326477051, -15.736820220947266 
498, 3.015376567840576, -3.44711971282959, -14.406386375427246 
499, 2.812380313873291, -3.012876272201538, -12.503654479980469 
500, 2.325425863265991, -2.9824893474578857, -10.538228034973145 
501, 1.9473196268081665, -2.5825366973876953, -8.471827507019043 
502, 1.4270014762878418, -2.7240190505981445, -6.123587608337402 
503, 1.066654920578003, -2.9209365844726562, -4.290521621704102 
504, -0.08443844318389893, -2.2814157009124756, -2.63698673248291 
505, -1.2537487745285034, -1.4336439371109009, -1.0383100509643555 
506, -1.474360704421997, -0.8306980133056641, -0.26945018768310547 
507, -1.2199006080627441, -0.5966711044311523, 0.4712390899658203 
508, -1.2201480865478516, -0.7911784648895264, 0.15288925170898438 
509, -1.9195220470428467, -1.8036410808563232, -0.6516561508178711 
510, -1.935659408569336, -1.4217743873596191, -1.2318611145019531 
511, -1.3643437623977661, -0.9572644233703613, -1.6708440780639648 
512, -1.599456787109375, -0.9592366218566895, -1.6862525939941406 
513, -1.5881990194320679, -1.4463210105895996, -2.0788683891296387 
514, -2.712540626525879, -2.096613883972168, -1.227830410003662 
515, 0.5957618951797485, 5.299291133880615, -18.287660598754883 
516, -1.881206750869751, 0.29239511489868164, -7.860774040222168 
517, -1.6554020643234253, 0.9919185638427734, -6.043330192565918 
518, 0.8968074321746826, 3.7797164916992188, -4.93070650100708 
519, 2.5649209022521973, 7.519100189208984, -6.619566917419434 
520, 1.303133487701416, 5.438444137573242, -7.566008567810059 
521, -7.629570960998535, -10.75082778930664, 4.748795509338379 
522, -0.9738378524780273, -14.485170364379883, 22.77867889404297 
523, 10.460548400878906, -13.19173812866211, 26.232994079589844 
524, 26.13092041015625, -5.661456108093262, 18.37103843688965 
525, 9.988319396972656, -8.057329177856445, 3.6542418003082275 
526, -16.928466796875, -10.632396697998047, -28.80764389038086 
527, -19.709407806396484, -10.086668014526367, -4.396433353424072 
528, -6.482590675354004, -10.376516342163086, 13.020419120788574 
529, -0.6710824966430664, -7.549442291259766, 8.833669662475586 
530, 1.5899724960327148, -4.695080757141113, 3.5703139305114746 
531, 0.9587521553039551, -7.272192001342773, 4.29988956451416 
532, -1.2503979206085205, -10.321765899658203, -3.178462028503418 
533, -3.5510284900665283, -11.489115715026855, -4.222397327423096 
534, -3.5405807495117188, -11.422009468078613, -4.0629425048828125 
535, -4.640753746032715, -9.997943878173828, -0.8350293636322021 
536, -3.4395711421966553, -7.154120445251465, 3.288316488265991 
537, -3.294893980026245, -6.7448015213012695, 3.783557176589966 
538, -2.846665620803833, -7.55534553527832, 3.3170628547668457 
539, -2.057079553604126, -8.604660987854004, 2.7303624153137207 
540, -1.331425666809082, -8.555448532104492, 1.4460355043411255 
541, -1.6752283573150635, -8.164112091064453, 0.6133863925933838 
542, -1.9907946586608887, -7.610156059265137, 1.754773736000061 
543, -1.7383437156677246, -6.989936828613281, 2.371954917907715 
544, -1.316272258758545, -6.721592903137207, 2.481797218322754 
545, -0.9042141437530518, -6.817704200744629, 2.46195125579834 
546, -0.2785078287124634, -6.567682266235352, 2.472529172897339 
547, 0.3640798330307007, -5.812412261962891, 2.787986993789673 
548, 0.12118053436279297, -4.644254684448242, 3.2839736938476562 
549, -0.4515049457550049, -3.8948793411254883, 3.812305212020874 
550, -0.8035768270492554, -3.5738916397094727, 5.674941539764404 
551, -0.7040330171585083, -4.465458869934082, 7.992366790771484 
552, -0.12483716011047363, -3.283702850341797, 9.0763578414917 
553, 5.493870258331299, 1.1908540725708008, 3.910719394683838 
554, 5.462831497192383, 1.7894625663757324, 4.767695426940918 
555, 7.305779457092285, 18.015296936035156, -30.364683151245117 
556, -5.375790596008301, -0.7107052803039551, 23.01446533203125 
557, 0.19873452186584473, -13.878511428833008, 4.975332736968994 
558, 2.0734972953796387, -2.5010743141174316, -10.203777313232422 
559, -5.0171990394592285, 3.9543590545654297, 8.356109619140625 
560, -4.68817138671875, 0.6686844825744629, 5.969274520874023 
561, -0.10989648103713989, 2.0934433937072754, -2.399258613586426 
562, 4.5240583419799805, -2.529144048690796, -4.755343437194824 
563, 1.4414668083190918, -3.6969783306121826, -3.7585153579711914 
564, -0.7028947472572327, -6.769370079040527, -4.577588081359863 
565, -0.4812571406364441, -2.7614035606384277, -6.430205345153809 
566, 3.4965124130249023, -2.675935983657837, -4.965690612792969 
567, 3.352379083633423, -5.527381420135498, -9.997593879699707 
568, -0.24924558401107788, -2.493252992630005, -16.72113037109375 
569, 4.893533706665039, -1.9803898334503174, -21.167417526245117 
570, 1.7986714839935303, -7.192294120788574, -22.859149932861328 
571, 1.7986714839935303, -7.192294120788574, -22.859149932861328 
572, 4.649592876434326, -5.053814888000488, -19.831153869628906 
573, 4.3862199783325195, -3.8951263427734375, -16.123313903808594 
574, 2.7420969009399414, -3.906599283218384, -12.13293743133545 
575, 0.34915781021118164, -3.2486419677734375, -9.54561996459961 
576, -1.4798648357391357, -2.6057686805725098, -5.442619323730469 
577, -1.7517647743225098, -2.2030341625213623, -3.364230155944824 
578, -1.5587494373321533, -0.8364344239234924, -1.7637548446655273 
579, -1.536341667175293, -0.1254701018333435, -0.6435394287109375 
580, -2.1990983486175537, 0.7545129060745239, 0.2646293640136719 
581, -2.6383066177368164, 1.2726366519927979, 0.6640510559082031 
582, -2.3978705406188965, 1.8434958457946777, 1.3478355407714844 
583, -1.9091063737869263, 1.879828929901123, 1.979701042175293 
584, -1.6714693307876587, 0.8595719337463379, 2.8728818893432617 
585, -1.1587650775909424, 0.7118806838989258, 4.149178504943848 
586, -0.42820262908935547, 1.8980393409729004, 2.125791549682617 
587, 0.19379281997680664, 3.1979246139526367, -0.9371843338012695 
588, 1.1990108489990234, 2.4576973915100098, -1.3182377815246582 
589, 0.6497623920440674, 0.07065582275390625, -0.45014476776123047 
590, 0.8235104084014893, -2.848778247833252, 1.0907316207885742 
591, -1.4786704778671265, -9.617295265197754, 6.118143558502197 
592, -2.685049533843994, -11.638474464416504, 7.645955562591553 
593, -2.501192092895508, -11.918277740478516, 7.273467063903809 
594, -2.833434581756592, -11.028518676757812, 5.83551549911499 
595, -2.742666721343994, -11.22004508972168, 5.496082305908203 
596, 0.4000682830810547, -7.959933757781982, 5.171051025390625 
597, 0.3817296028137207, -7.418993949890137, 6.55192232131958 
598, 1.2796289920806885, -6.910547256469727, 9.136381149291992 
599, 1.607469916343689, -6.744006156921387, 8.361559867858887 
600, -0.030663907527923584, -6.712371826171875, 4.221670627593994 
601, -2.851888656616211, -6.90017032623291, 1.6630802154541016 
602, -1.4061098098754883, -6.235998153686523, 4.3370256423950195 
603, 1.647415280342102, -7.11161994934082, 4.192323684692383 
604, 3.068574905395508, -8.87848949432373, 2.194932222366333 
605, 7.768083095550537, -3.202040672302246, 6.809607982635498 
606, 8.898777961730957, 19.912689208984375, -11.043479919433594 
607, 6.834784984588623, 30.070415496826172, -12.446991920471191 
608, -7.540842533111572, 28.171924591064453, 8.24621295928955 
609, -11.141277313232422, -3.4778547286987305, -8.974075317382812 
610, -4.6405463218688965, -16.629131317138672, 0.7761235237121582 
611, 1.7786917686462402, 7.856518745422363, -15.065202713012695 
612, -1.7835851907730103, 4.1164445877075195, 5.218143463134766 
613, -1.7729078531265259, 4.052901268005371, 4.933467864990234 
614, -1.7729078531265259, 4.052901268005371, 4.933467864990234 
615, 5.05828857421875, 2.9358720779418945, -13.928204536437988 
616, 1.408313274383545, -7.0140533447265625, -16.53404998779297 
617, 7.140115261077881, -12.9644193649292, -8.554070472717285 
618, 6.017075061798096, -14.69393253326416, -0.16720902919769287 
619, -1.3489341735839844, -8.914285659790039, 8.388736724853516 
620, -5.09244966506958, -1.9102964401245117, 8.087821006774902 
621, 0.42543521523475647, 1.4804906845092773, -4.022234916687012 
622, 4.639573574066162, 0.5729570388793945, -5.51676607131958 
623, 2.099763870239258, -3.9894638061523438, 3.304999351501465 
624, 4.355128765106201, -3.312601089477539, 3.086224317550659 
625, -9.009868621826172, -12.3828763961792, 4.40090274810791 
626, -10.844017028808594, -10.178454399108887, -9.530378341674805 
627, -1.6620066165924072, 27.259143829345703, 2.4979586601257324 
628, -6.390533924102783, 20.03258514404297, -1.642553448677063 
629, 4.391883373260498, 20.804651260375977, -6.614137649536133 
630, 8.565810203552246, 14.628573417663574, -1.7747472524642944 
631, 1.9141839742660522, 9.172439575195312, 2.1692495346069336 
632, 2.099094867706299, 9.140746116638184, 2.200430154800415 
633, 0.5809650421142578, 5.1613969802856445, 5.2601704597473145 
634, 3.7991347312927246, 1.4007940292358398, 7.795531749725342 
635, 2.51669979095459, 3.0821313858032227, -5.54933500289917 
636, -2.76283860206604, -1.7339153289794922, -12.089808464050293 
637, -3.1961770057678223, -0.03346824645996094, -0.26346105337142944 
638, -3.27333927154541, -0.5766515731811523, -8.247729301452637 
639, -7.520591735839844, -1.426346778869629, -7.477234363555908 
640, -8.799928665161133, -3.802316665649414, -8.183608055114746 
641, -8.546960830688477, -3.6343917846679688, -8.030179977416992 
642, -6.042902946472168, -3.7543506622314453, 0.07357800006866455 
643, -7.182894229888916, -1.721994400024414, 1.4689314365386963 
644, -6.162601470947266, -2.156588554382324, 5.607680320739746 
645, -3.7199862003326416, -0.9260158538818359, 4.546787261962891 
646, -1.3390668630599976, -1.7888545989990234, 0.7646126747131348 
647, 0.05898547172546387, -2.649932861328125, -4.097447395324707 
648, -1.430084228515625, -3.3009748458862305, -3.0790152549743652 
649, -2.536210536956787, -5.088181972503662, 0.26688337326049805 
650, -0.42655888199806213, -5.5123138427734375, -5.8023362159729 
651, 1.7123401165008545, -9.448951721191406, 0.42548227310180664 
652, 3.053708076477051, -5.798737525939941, -6.99948787689209 
653, 2.9279403686523438, -5.78719425201416, -6.971739768981934 
654, 4.950981140136719, -4.453017234802246, 8.102956771850586 
655, -0.9681907296180725, -0.6610097885131836, -3.1524643898010254 
656, 0.003924179822206497, -5.3187408447265625, 0.8571028709411621 
657, 0.6446797251701355, -2.416219711303711, 5.770068168640137 
658, -0.6687020063400269, -0.06142091751098633, 6.259397983551025 
659, -0.42667293548583984, 2.1872782707214355, 4.890313148498535 
660, 1.008094072341919, 0.24088525772094727, -2.169846534729004 
661, 1.9239782094955444, -2.1639938354492188, -4.034952640533447 
662, -0.7089059352874756, -4.160585403442383, -2.4020137786865234 
663, -0.664757490158081, -3.073086738586426, 1.8781147003173828 
664, -0.7677748203277588, -0.7359895706176758, 0.17664480209350586 
665, -0.242592453956604, -0.3318057060241699, -2.101408004760742 
666, 0.15949583053588867, -1.7847700119018555, -1.4033756256103516 
667, 1.1159722805023193, -1.6078176498413086, -1.0314126014709473 
668, -0.5088646411895752, -2.6982474327087402, 6.202142715454102 
669, -1.1291327476501465, -2.9152274131774902, 5.952000617980957 
670, -1.608780860900879, -2.018278121948242, 2.5646486282348633 
671, -0.9397618770599365, -0.2257237434387207, -0.15084314346313477 
672, -0.8348023891448975, -0.36154985427856445, 0.04078483581542969 
673, -0.34537172317504883, 1.319101333618164, -20.38088607788086 
674, -0.28693461418151855, 1.5527915954589844, -20.513059616088867 
675, -8.079185485839844, 0.3780975341796875, -0.8494539260864258 
676, -6.567439556121826, -3.162825107574463, 2.587423801422119 
677, -2.6506752967834473, -1.4179067611694336, 9.470863342285156 
678, -2.2277824878692627, -0.18878984451293945, 11.713688850402832 
679, -2.6832680702209473, 0.07626056671142578, 8.900038719177246 
680, -0.052961111068725586, -0.11183404922485352, 3.857908248901367 
681, 0.6275327205657959, 0.9051351547241211, 0.8178253173828125 
682, 0.06288862228393555, 1.5059781074523926, -1.2700786590576172 
683, 2.4207725524902344, 0.14197492599487305, -2.0302162170410156 
684, 4.406855583190918, -0.8248696327209473, -1.1502008438110352 
685, 4.347455024719238, 2.0416345596313477, 1.0351028442382812 
686, 0.910712718963623, -1.3360638618469238, 0.1482086181640625 
687, -0.9069869518280029, 2.5210909843444824, -2.106670379638672 
688, 0.06097877025604248, 1.509552240371704, -1.8490419387817383 
689, 2.5440168380737305, -1.590987205505371, 0.21593475341796875 
690, 3.496821165084839, -0.340043306350708, 1.9927053451538086 
691, 1.4531056880950928, -0.8816545009613037, 5.222572326660156 
692, 1.5151909589767456, -1.422668218612671, 3.503647804260254 
693, 1.405167579650879, -1.454437255859375, 3.500530242919922 
694, 2.00150990486145, -1.7506482601165771, 3.4333972930908203 
695, 1.5243401527404785, -1.9600162506103516, 3.2776079177856445 
696, 0.8735484480857849, -0.43367886543273926, -0.03614044189453125 
697, -0.4158084988594055, -0.3066134452819824, -1.1915559768676758 
698, -2.396268606185913, 1.1635265350341797, -0.575993537902832 
699, -1.7324931621551514, 0.565645694732666, -2.428739547729492 
700, -1.8250576257705688, 0.6262063980102539, -0.5402393341064453 
701, -0.827579915523529, 0.3079214096069336, -0.8537302017211914 
702, -1.1626808643341064, 0.17615318298339844, -1.1817989349365234 
703, -0.841396689414978, -0.03018331527709961, -1.4541988372802734 
704, -0.31149423122406006, -0.4768056869506836, -1.0168704986572266 
705, 0.04207640886306763, -0.8052105903625488, 0.712986946105957 
706, 0.5792759656906128, -1.0820021629333496, 1.9002485275268555 
707, 0.636821985244751, -1.1191015243530273, 0.9881529808044434 
708, -1.3225983381271362, -0.41281604766845703, -1.214033603668213 
709, -1.8921047449111938, 0.38490867614746094, -3.035304069519043 
710, -0.14578628540039062, 0.23096466064453125, -2.5950393676757812 
711, 0.5895987749099731, -0.2503652572631836, 0.7913460731506348 
712, 0.0005510449409484863, -0.05920124053955078, -0.0923466682434082 
713, 0.054486870765686035, -0.09435892105102539, -0.06086587905883789 
714, -0.7114231586456299, 0.3502988815307617, -0.850987434387207 
715, -0.6648139953613281, 0.444551944732666, -0.7899341583251953 
716, -0.4497948884963989, 0.22075319290161133, 0.42987918853759766 
717, -0.4002094268798828, 0.2033252716064453, 0.4471917152404785 
718, -0.40868115425109863, 0.30200719833374023, -0.22321271896362305 
719, -0.9502278566360474, 0.5645790100097656, -2.161005973815918 
720, -0.9896266460418701, 0.6586627960205078, -2.4723410606384277 
721, -0.6750832796096802, 0.18060684204101562, -0.1297922134399414 
722, -1.2690424919128418, 0.33159828186035156, 1.6855697631835938 
723, -1.6253094673156738, 0.478975772857666, 1.4656753540039062 
724, -0.7485055923461914, 0.6404433250427246, 0.6927037239074707 
725, 0.214363694190979, 0.623786449432373, 0.044304847717285156 
726, 0.039214491844177246, 0.5395951271057129, -0.6051235198974609 
727, -0.19758284091949463, 0.6645002365112305, -1.723233699798584 
728, -0.8126838207244873, 0.6388158798217773, -1.3628439903259277 
729, -0.13789618015289307, 0.3874959945678711, -0.2892765998840332 
730, -0.023969292640686035, 0.4859943389892578, 0.5825605392456055 
731, -0.025487303733825684, 1.028022289276123, -0.8252434730529785 
732, -0.02030348777770996, 1.0180726051330566, -0.8167929649353027 
733, -0.2859821319580078, 1.1166882514953613, -1.0666265487670898 
734, 0.17003917694091797, 0.9024972915649414, -0.35184812545776367 
735, -0.09463632106781006, 0.9012699127197266, 0.1496257781982422 
736, -0.25445282459259033, 0.915626049041748, 0.06164407730102539 
