#Measurement, Acceleration X, Acceleration Y, Acceleration Z, Rotation Alpha, Rotation Beta, Rotation Gamma,  
1, -2.3465423583984375, 4.807708740234375, 7.7303466796875, 0.284332275390625, 0.036285400390625, 0.187347412109375, 
2, -2.601043701171875, 4.7161865234375, 8.118072509765625, -0.15252685546875, -0.03955078125, -0.143768310546875, 
3, -2.3231201171875, 4.692901611328125, 7.91912841796875, 0.43707275390625, -0.2275390625, -0.08929443359375, 
4, -2.578338623046875, 5.371612548828125, 8.15673828125, 0.0589599609375, -0.059844970703125, 0.054901123046875, 
5, -2.428863525390625, 5.429840087890625, 7.6330718994140625, 0.224517822265625, -0.23394775390625, 0.208709716796875, 
6, -2.5794219970703125, 4.5707244873046875, 7.642669677734375, 0.78955078125, 0.051239013671875, -0.058319091796875, 
7, -2.000640869140625, 5.2908935546875, 7.238311767578125, 0.3665771484375, 0.213592529296875, -0.42254638671875, 
8, -2.2910614013671875, 6.40679931640625, 7.049835205078125, 1.064056396484375, 0.581024169921875, -0.878631591796875, 
9, -2.1755523681640625, 6.7432098388671875, 5.3493194580078125, 1.6568603515625, 0.57568359375, -0.402252197265625, 
10, -6.25848388671875, 5.762115478515625, 6.3414154052734375, 2.2080078125, -0.79791259765625, -0.692779541015625, 
11, -3.8951873779296875, 6.9447021484375, 1.6638641357421875, 2.46221923828125, -0.068389892578125, -0.86474609375, 
12, -7.3132476806640625, 7.4252777099609375, 0.6044921875, 0.148681640625, -0.252105712890625, -0.400115966796875, 
13, -5.6884307861328125, 7.444671630859375, 1.4592742919921875, 1.835235595703125, -2.167236328125, 0.288818359375, 
14, -3.5758819580078125, 10.714309692382812, 0.7258453369140625, 0.935882568359375, 0.111053466796875, -0.14697265625, 
15, -3.8740692138671875, 10.243972778320312, -1.574981689453125, 3.2333984375, -1.328765869140625, 0.610321044921875, 
16, -6.62603759765625, 8.113082885742188, -3.1704864501953125, 1.198638916015625, -1.743194580078125, 0.458648681640625, 
17, -5.3587799072265625, 5.881591796875, -2.6766357421875, 1.128143310546875, -0.594970703125, 2.4464111328125, 
18, -4.7015380859375, 9.139678955078125, -3.2838287353515625, 0.9305419921875, -0.560791015625, 1.23089599609375, 
19, -3.368377685546875, 7.9910430908203125, -3.416046142578125, 1.04803466796875, 0.23388671875, 1.475494384765625, 
20, -1.8713836669921875, 8.201126098632812, -3.162445068359375, -0.005126953125, -0.4796142578125, 0.441558837890625, 
21, -0.7028656005859375, 10.369613647460938, -3.2564544677734375, -0.516754150390625, -0.589630126953125, 0.852783203125, 
22, -1.05615234375, 8.733734130859375, -3.69537353515625, 0.559906005859375, -1.0179443359375, -0.880767822265625, 
23, 0.8175201416015625, 10.142196655273438, -4.955535888671875, 1.62054443359375, -0.647308349609375, 0.204437255859375, 
24, -1.471527099609375, 9.244552612304688, -7.6489715576171875, 1.99652099609375, -0.737030029296875, -0.417205810546875, 
25, -2.151397705078125, 6.111358642578125, -7.7802886962890625, 0.113433837890625, 1.4429931640625, 1.50006103515625, 
26, 1.34332275390625, 7.0304718017578125, -7.877349853515625, 1.570343017578125, 1.18023681640625, 2.24346923828125, 
27, 3.1450042724609375, 5.7703399658203125, -7.8585052490234375, 0.826934814453125, 1.048858642578125, 1.492584228515625, 
28, 6.62005615234375, 4.3260498046875, -8.303192138671875, -0.224090576171875, 2.969329833984375, 2.056549072265625, 
29, 7.977569580078125, 1.9699249267578125, -5.0387420654296875, -0.76348876953125, 2.204559326171875, 2.03839111328125, 
30, 6.334228515625, -0.7340240478515625, -3.277740478515625, -0.189910888671875, 2.35089111328125, 0.54302978515625, 
31, 6.868896484375, 0.3297576904296875, -2.270660400390625, -0.367218017578125, 0.30865478515625, 0.7288818359375, 
32, 12.1922607421875, -4.0831451416015625, -3.234954833984375, -1.2783203125, -0.01605224609375, 2.855499267578125, 
33, 12.62054443359375, -5.2771148681640625, 1.605133056640625, -1.119171142578125, -0.467864990234375, 2.2926025390625, 
34, 8.0567626953125, -2.9282684326171875, 1.890167236328125, -1.5474853515625, 1.988800048828125, 0.170257568359375, 
35, 9.799209594726562, -6.5487518310546875, 1.42559814453125, 1.06512451171875, -0.865203857421875, 1.2244873046875, 
36, 6.632537841796875, -6.810638427734375, -0.8979949951171875, -0.02435302734375, 0.772216796875, 0.8271484375, 
37, 5.2795867919921875, -5.8677825927734375, 0.7409820556640625, 0.002349853515625, 0.465667724609375, 1.48297119140625, 
38, 6.6018524169921875, -10.748489379882812, -0.3222808837890625, 1.28515625, 1.1268310546875, 1.758544921875, 
39, 3.42340087890625, -9.211090087890625, 0.3154296875, 0.329193115234375, 0.570343017578125, 1.7200927734375, 
40, 5.3544769287109375, -10.295639038085938, 1.904205322265625, 0.063232421875, 0.162322998046875, 0.43194580078125, 
41, 6.6461944580078125, -10.412567138671875, 2.241363525390625, -0.1888427734375, 1.123626708984375, -0.607330322265625, 
42, 0.268585205078125, -7.1151123046875, 1.046722412109375, -0.03076171875, -0.72100830078125, 0.180938720703125, 
43, 2.81085205078125, -7.0827178955078125, 2.46954345703125, -0.13330078125, -0.24676513671875, -0.019866943359375, 
44, 2.72161865234375, -8.471298217773438, 1.3656768798828125, 0.36444091796875, 0.707061767578125, 0.2119140625, 
45, 3.2465362548828125, -9.842361450195312, 2.0793914794921875, -0.792327880859375, 0.19757080078125, 0.82501220703125, 
46, 3.11944580078125, -11.338653564453125, 1.77655029296875, -0.3170166015625, 0.9559326171875, 0.719268798828125, 
47, 0.9683837890625, -9.59173583984375, 2.0531768798828125, 1.19970703125, 0.632293701171875, 1.3056640625, 
48, 2.3994293212890625, -10.259414672851562, 3.38580322265625, 0.380462646484375, -0.957061767578125, -0.496246337890625, 
49, -1.0211181640625, -8.926483154296875, 4.2035369873046875, 0.190338134765625, -0.52020263671875, -0.206787109375, 
50, 2.4275665283203125, -7.8534088134765625, 2.465576171875, -0.6630859375, -0.452911376953125, 0.18414306640625, 
51, 1.6834869384765625, -8.367218017578125, 4.0141448974609375, -0.595794677734375, 0.35565185546875, -0.047637939453125, 
52, 0.74993896484375, -8.324356079101562, -0.847198486328125, -0.37255859375, 0.271270751953125, 1.682708740234375, 
53, -1.128997802734375, -10.007583618164062, -0.6863861083984375, 0.31103515625, 0.002105712890625, 0.089080810546875, 
54, -0.6219482421875, -9.992111206054688, 1.132232666015625, -0.074554443359375, -1.399261474609375, 0.16705322265625, 
55, 0.1459197998046875, -9.3192138671875, -1.7663421630859375, 0.480865478515625, -0.81927490234375, 0.117919921875, 
56, -2.36248779296875, -9.023956298828125, -0.356597900390625, -0.141845703125, 0.2979736328125, -0.013458251953125, 
57, -1.2262725830078125, -8.773590087890625, -1.0682373046875, -0.501800537109375, -1.484710693359375, -0.143768310546875, 
58, -0.8128204345703125, -9.613983154296875, 0.6180877685546875, 0.51397705078125, -0.709259033203125, -0.143768310546875, 
59, -2.2128143310546875, -9.326095581054688, -0.9166412353515625, -0.014739990234375, 0.363128662109375, -0.0743408203125, 
60, -1.8961181640625, -8.973190307617188, 0.2152099609375, 0.158294677734375, -0.577880859375, 0.503509521484375, 
61, -0.963287353515625, -9.415390014648438, 0.788543701171875, -0.110870361328125, -0.1378173828125, 0.2589111328125, 
62, -1.2222442626953125, -7.7373504638671875, 2.4882049560546875, 1.24029541015625, -1.779510498046875, 0.106170654296875, 
63, 0.2069091796875, -6.71612548828125, 4.55487060546875, 2.777313232421875, 0.226409912109375, -0.5699462890625, 
64, -0.0677642822265625, -5.8502044677734375, 4.1772308349609375, 2.446197509765625, -0.358917236328125, -0.741912841796875, 
65, 0.210601806640625, -5.5752105712890625, 10.191787719726562, 1.935638427734375, -0.487091064453125, -0.368072509765625, 
66, 0.338134765625, -3.217437744140625, 10.2064208984375, 1.401580810546875, -0.393096923828125, -0.186492919921875, 
67, 1.8250732421875, -1.0277862548828125, 10.599273681640625, 1.40264892578125, -0.275604248046875, 0.20123291015625, 
68, 0.9950408935546875, -0.11370849609375, 11.438644409179688, 0.715850830078125, -0.28521728515625, -0.04443359375, 
69, 0.8140106201171875, 0.20562744140625, 11.803359985351562, -0.864959716796875, 0.38983154296875, 0.007904052734375, 
70, 0.4028472900390625, -1.55548095703125, 9.832626342773438, -1.597686767578125, 0.5885009765625, 0.018585205078125, 
71, 0.010467529296875, -4.147308349609375, 8.38818359375, -1.6756591796875, 0.393035888671875, 0.183074951171875, 
72, -0.0654449462890625, -5.2334747314453125, 7.0240631103515625, -1.75897216796875, 0.35565185546875, 0.168121337890625, 
73, -1.33660888671875, -7.143951416015625, 5.636871337890625, -1.832672119140625, 0.467803955078125, 0.39349365234375, 
74, -1.34283447265625, -7.4395599365234375, 3.9577484130859375, -1.8380126953125, 0.1014404296875, 0.259979248046875, 
75, -1.14227294921875, -9.036239624023438, 2.5395660400390625, -1.898895263671875, 0.19970703125, 0.49176025390625, 
76, -0.93902587890625, -7.317626953125, 1.6089935302734375, -1.565643310546875, 0.950592041015625, -0.05511474609375, 
77, -3.7702484130859375, -9.372634887695312, 1.550537109375, 0.094207763671875, 1.110809326171875, 0.2418212890625, 
78, -3.2932586669921875, -8.832107543945312, -0.043731689453125, -0.0093994140625, -0.3856201171875, -0.436431884765625, 
79, -1.6245880126953125, -9.02069091796875, -0.495513916015625, 0.188201904296875, -0.235015869140625, 0.0538330078125, 
80, -3.129974365234375, -8.481201171875, 3.4621734619140625, 1.606658935546875, -0.205108642578125, 0.360382080078125, 
81, -0.5566253662109375, -8.874969482421875, 3.296295166015625, 1.6312255859375, -0.70819091796875, -0.2196044921875, 
82, -1.097869873046875, -6.826751708984375, 6.427093505859375, 1.786102294921875, -0.531951904296875, -0.651123046875, 
83, 0.278656005859375, -6.1173553466796875, 7.084320068359375, 1.568206787109375, -0.41552734375, -0.162994384765625, 
84, 0.6679840087890625, -3.72259521484375, 9.10504150390625, 1.37701416015625, -0.252105712890625, -0.0487060546875, 
85, 0.2216796875, -2.427520751953125, 10.621490478515625, 1.1356201171875, -0.220062255859375, 0.109375, 
86, 1.2605438232421875, -1.05859375, 10.516311645507812, 0.705169677734375, -0.284149169921875, -0.111724853515625, 
87, 0.612701416015625, -0.3946075439453125, 10.516159057617188, 0.632537841796875, -0.168792724609375, 0.215118408203125, 
88, 1.5623321533203125, 0.1497955322265625, 11.72705078125, -0.328765869140625, 0.080078125, -0.028411865234375, 
89, 1.312774658203125, -0.5646514892578125, 10.946868896484375, -1.450286865234375, 0.454986572265625, -0.199310302734375, 
90, 0.2504119873046875, -2.27423095703125, 10.031539916992188, -1.616912841796875, 0.506256103515625, -0.03802490234375, 
91, 0.590911865234375, -4.8112945556640625, 8.067642211914062, -2.078338623046875, 0.384490966796875, 0.2845458984375, 
92, -0.9364013671875, -7.20684814453125, 5.5495147705078125, -2.471405029296875, 0.5714111328125, 0.499237060546875, 
93, -0.908355712890625, -7.96478271484375, 1.8773651123046875, -2.306915283203125, -0.036346435546875, 0.490692138671875, 
94, -1.6097869873046875, -6.79925537109375, 2.70501708984375, -0.869232177734375, 0.9217529296875, -0.0316162109375, 
95, -1.29669189453125, -9.398834228515625, 0.3978118896484375, 0.06536865234375, 0.217864990234375, -0.2025146484375, 
96, -3.0044403076171875, -8.917022705078125, 0.9055328369140625, -0.02008056640625, 0.117462158203125, 0.02392578125, 
97, -1.6262664794921875, -9.105026245117188, 0.93365478515625, 0.017303466796875, -0.17840576171875, -0.018798828125, 
98, -1.606964111328125, -9.264419555664062, 1.18505859375, 0.1956787109375, 0.021331787109375, -0.036956787109375, 
99, -2.3474578857421875, -9.19219970703125, 1.1572723388671875, 0.0888671875, -0.0438232421875, -0.011322021484375, 
100, -1.6889190673828125, -9.23443603515625, 0.853424072265625, 0.104888916015625, -0.10577392578125, 0.032470703125, 
101, -2.98443603515625, -8.364227294921875, 1.4217071533203125, 0.4306640625, -0.224334716796875, 0.317657470703125, 
102, -0.1995697021484375, -8.637435913085938, 5.116851806640625, 1.769012451171875, -0.437957763671875, -0.071136474609375, 
103, -0.3299102783203125, -5.90423583984375, 4.778350830078125, 2.136444091796875, -0.67828369140625, -0.673553466796875, 
104, -0.29107666015625, -5.5073394775390625, 8.392181396484375, 2.5198974609375, 0.09716796875, -0.233489990234375, 
105, 0.0398406982421875, -3.6407928466796875, 9.506088256835938, 1.4774169921875, -0.271331787109375, -0.229217529296875, 
106, 0.4942474365234375, -2.2040557861328125, 10.316482543945312, 1.126007080078125, -0.26812744140625, 0.1435546875, 
107, 0.935546875, -0.8814239501953125, 10.87945556640625, 0.715850830078125, -0.1805419921875, 0.19696044921875, 
108, 0.8286895751953125, -0.310211181640625, 10.536636352539062, 0.2811279296875, -0.13568115234375, -0.1427001953125, 
109, 1.116424560546875, -0.35406494140625, 11.353729248046875, 0.013031005859375, 0.08648681640625, 0.151031494140625, 
110, 0.940673828125, -1.2574920654296875, 11.450210571289062, -1.17364501953125, 0.429351806640625, -0.14056396484375, 
111, 0.13983154296875, -2.4436187744140625, 9.736404418945312, -1.48553466796875, 0.384490966796875, 0.014312744140625, 
112, -0.08489990234375, -5.2914276123046875, 7.8973236083984375, -1.83160400390625, 0.286224365234375, 0.313385009765625, 
113, -1.11639404296875, -6.501922607421875, 5.2842254638671875, -1.9661865234375, 0.393035888671875, 0.47894287109375, 
114, -1.24542236328125, -7.20867919921875, 3.88470458984375, -1.862579345703125, 0.13134765625, 0.35076904296875, 
115, -1.395050048828125, -7.2249908447265625, 1.846710205078125, -1.16937255859375, 0.86834716796875, -0.17047119140625, 
116, -1.6085052490234375, -10.3099365234375, 0.570770263671875, 0.0760498046875, 0.301177978515625, 0.033538818359375, 
117, -2.04315185546875, -9.352859497070312, 1.27752685546875, 0.07177734375, 0.108917236328125, -0.01666259765625, 
118, -1.575531005859375, -9.233139038085938, 0.9561920166015625, -0.164276123046875, 0.027740478515625, 0.007904052734375, 
119, -1.7795257568359375, -9.311660766601562, 0.6434326171875, 0.13800048828125, -0.192291259765625, 0.003631591796875, 
120, -2.6387939453125, -9.260635375976562, 0.2261505126953125, 0.027984619140625, -0.382415771484375, -0.000640869140625, 
121, -2.193328857421875, -8.458984375, 2.805145263671875, 0.970062255859375, -0.47747802734375, 0.264251708984375, 
122, -1.3009033203125, -8.153350830078125, 3.52752685546875, 1.806396484375, -0.217926025390625, -0.229217529296875, 
123, 0.170928955078125, -6.411102294921875, 4.1949005126953125, 1.499847412109375, -0.5137939453125, -0.81561279296875, 
124, -1.1297149658203125, -7.6611480712890625, 7.8948516845703125, 1.80426025390625, -0.175201416015625, -0.231353759765625, 
125, 0.8016357421875, -3.58154296875, 9.123214721679688, 1.4945068359375, -0.476409912109375, -0.1683349609375, 
126, -0.08892822265625, -2.4421234130859375, 10.072647094726562, 1.232818603515625, -0.201904296875, 0.048492431640625, 
127, 0.50482177734375, -2.27532958984375, 10.56842041015625, 0.850433349609375, -0.260650634765625, 0.0281982421875, 
128, 0.7345733642578125, -1.251983642578125, 10.63653564453125, 0.54388427734375, -0.201904296875, -0.145904541015625, 
129, 0.950408935546875, -1.0170135498046875, 10.557235717773438, 0.41998291015625, -0.087615966796875, -0.009185791015625, 
130, 0.8989715576171875, -0.5063018798828125, 10.995132446289062, 0.03973388671875, 0.05657958984375, 0.067718505859375, 
131, 1.1208343505859375, -0.454132080078125, 11.492996215820312, -0.717559814453125, 0.30224609375, -0.041229248046875, 
132, 0.63983154296875, -2.15728759765625, 10.454025268554688, -1.36163330078125, 0.3492431640625, -0.071136474609375, 
133, -0.1760711669921875, -4.23968505859375, 9.057952880859375, -1.518646240234375, 0.28302001953125, 0.255706787109375, 
134, 0.24139404296875, -5.7930755615234375, 7.3184356689453125, -1.862579345703125, 0.44537353515625, 0.364654541015625, 
135, -1.1171417236328125, -7.3450927734375, 4.4029693603515625, -1.902099609375, 0.515869140625, 0.324066162109375, 
136, -1.531951904296875, -8.10528564453125, 3.0264739990234375, -1.7269287109375, 0.262725830078125, 0.41058349609375, 
137, -2.0390777587890625, -7.961334228515625, 3.1374664306640625, -0.345855712890625, 0.6739501953125, -0.02947998046875, 
138, -1.814056396484375, -8.771194458007812, 1.0671234130859375, -0.247589111328125, 0.27447509765625, -0.29437255859375, 
139, -2.43011474609375, -9.144912719726562, 0.7322998046875, 0.060028076171875, 0.155914306640625, -0.095703125, 
140, -1.801025390625, -9.149063110351562, 0.9914398193359375, 0.02691650390625, 0.072601318359375, -0.047637939453125, 
141, -1.662261962890625, -9.19146728515625, 0.6602783203125, 0.15081787109375, -0.160247802734375, -0.017730712890625, 
142, -2.2515411376953125, -9.334579467773438, 0.6006011962890625, 0.057891845703125, -0.215789794921875, 0.240753173828125, 
143, -2.0144195556640625, -8.631057739257812, 1.56695556640625, 0.425323486328125, -0.619537353515625, 0.35076904296875, 
144, -1.072998046875, -7.8898773193359375, 4.1638946533203125, 1.497711181640625, -0.356781005859375, -0.265533447265625, 
145, 0.3273773193359375, -4.9747772216796875, 3.8950347900390625, 1.429351806640625, -1.28497314453125, -0.7408447265625, 
146, -1.4559783935546875, -7.248199462890625, 6.4940338134765625, 1.3834228515625, -0.28094482421875, -0.455657958984375, 
147, 0.1760101318359375, -3.9481353759765625, 8.90203857421875, 1.378082275390625, -0.209381103515625, -0.064727783203125, 
148, 0.4063262939453125, -2.9395904541015625, 9.137985229492188, 1.1527099609375, -0.22113037109375, -0.01666259765625, 
149, 0.926513671875, -1.68853759765625, 10.11761474609375, 0.93267822265625, -0.24462890625, 0.06024169921875, 
150, 0.632080078125, -1.0183868408203125, 11.050201416015625, 0.579132080078125, -0.089752197265625, 0.0281982421875, 
151, 0.8946380615234375, -0.2140045166015625, 10.5687255859375, 0.259765625, -0.085479736328125, -0.06365966796875, 
152, 0.7579498291015625, 0.1411590576171875, 10.196807861328125, 0.03118896484375, 0.05657958984375, 0.0623779296875, 
153, 0.9572906494140625, 0.118072509765625, 10.488983154296875, -0.234771728515625, 0.156982421875, -0.0059814453125, 
154, 0.7418365478515625, -0.5069427490234375, 10.799667358398438, -0.7357177734375, 0.307586669921875, 0.029266357421875, 
155, -0.098785400390625, -2.5127410888671875, 10.467041015625, -1.36376953125, 0.26593017578125, -0.14483642578125, 
156, -0.153411865234375, -3.30908203125, 9.288482666015625, -1.50262451171875, 0.28515625, 0.159576416015625, 
157, -0.1393280029296875, -6.090606689453125, 7.811279296875, -1.697021484375, 0.386627197265625, 0.39990234375, 
158, -1.3607635498046875, -7.0162506103515625, 4.6635894775390625, -1.74615478515625, 0.421875, 0.364654541015625, 
159, -1.5032196044921875, -8.03369140625, 2.5887298583984375, -1.6585693359375, 0.00958251953125, 0.292022705078125, 
160, -1.813018798828125, -7.43206787109375, 2.1011199951171875, -1.225982666015625, 0.97515869140625, -0.195037841796875, 
161, -2.5851898193359375, -9.503860473632812, 0.93804931640625, -0.055328369140625, 0.724151611328125, -0.01239013671875, 
162, -2.8203277587890625, -9.06964111328125, 0.4497222900390625, -0.072418212890625, 0.362060546875, -0.03375244140625, 
163, -1.305206298828125, -9.209548950195312, 0.82568359375, 0.060028076171875, 0.032012939453125, -0.01025390625, 
164, -1.9910125732421875, -9.333953857421875, 0.5014190673828125, 0.10382080078125, 0.06298828125, -0.00811767578125, 
165, -1.509429931640625, -9.103744506835938, 0.9034423828125, 0.08245849609375, -0.034210205078125, 0.069854736328125, 
166, -1.644775390625, -9.0509033203125, 0.7316131591796875, 0.251220703125, -0.047027587890625, 0.032470703125, 
167, -2.6691131591796875, -8.967514038085938, 1.929473876953125, 0.47552490234375, -0.440093994140625, 0.142486572265625, 
168, -0.687042236328125, -8.412994384765625, 4.3550567626953125, 1.228546142578125, -0.596038818359375, -0.0615234375, 
169, -0.6951141357421875, -6.9188690185546875, 4.4328765869140625, 1.40692138671875, -0.655853271484375, -0.50372314453125, 
170, -0.463165283203125, -5.8490142822265625, 5.5501861572265625, 1.78289794921875, -0.153839111328125, -0.13201904296875, 
171, -0.0941619873046875, -3.7141571044921875, 7.947174072265625, 1.613067626953125, -0.3984375, -0.365936279296875, 
172, 0.0250701904296875, -3.5598907470703125, 9.8321533203125, 1.243499755859375, -0.410186767578125, -0.124542236328125, 
173, 0.63446044921875, -1.668731689453125, 10.39093017578125, 1.09930419921875, -0.373870849609375, 0.0367431640625, 
174, 0.6929779052734375, -0.860565185546875, 10.626846313476562, 0.77459716796875, -0.2958984375, -0.126678466796875, 
175, 1.08721923828125, 0.1681060791015625, 10.565139770507812, 0.470184326171875, -0.11004638671875, 0.031402587890625, 
176, 1.09716796875, 0.786651611328125, 10.186508178710938, 0.09954833984375, 0.098236083984375, 0.125396728515625, 
177, 1.04412841796875, 0.72882080078125, 10.294174194335938, -0.22943115234375, 0.15057373046875, 0.0111083984375, 
178, 1.42840576171875, 0.03802490234375, 10.764022827148438, -0.9237060546875, 0.316131591796875, -0.06793212890625, 
179, 0.2021026611328125, -1.8051300048828125, 10.277496337890625, -1.458831787109375, 0.224273681640625, -0.095703125, 
180, 0.3328094482421875, -3.944091796875, 9.794082641601562, -1.522918701171875, 0.318267822265625, 0.283477783203125, 
181, -0.173919677734375, -6.13134765625, 8.05902099609375, -1.941619873046875, 0.4432373046875, 0.38067626953125, 
182, -1.35418701171875, -6.460296630859375, 4.3438873291015625, -2.107177734375, 0.363128662109375, 0.309112548828125, 
183, -1.5526885986328125, -8.394515991210938, 2.3526458740234375, -1.576324462890625, 0.091827392578125, 0.377471923828125, 
184, -2.34027099609375, -8.059371948242188, 2.124053955078125, -0.813690185546875, 0.655792236328125, -0.088226318359375, 
185, -2.144317626953125, -9.192550659179688, 0.6039581298828125, -0.119415283203125, 0.2210693359375, -0.15338134765625, 
186, -1.818572998046875, -9.290451049804688, 0.24578857421875, -0.083099365234375, 0.259521484375, -0.0316162109375, 
187, -1.2564544677734375, -9.045303344726562, 0.36358642578125, 0.201019287109375, 0.0758056640625, -0.00811767578125, 
188, -1.7987213134765625, -9.328704833984375, 0.3237457275390625, 0.145477294921875, -0.08013916015625, 0.03033447265625, 
189, -2.0087738037109375, -9.161941528320312, 1.1829071044921875, 0.27685546875, -0.11859130859375, 0.00042724609375, 
190, -2.316497802734375, -8.956497192382812, 2.2086029052734375, 0.685943603515625, -0.1549072265625, 0.340087890625, 
191, -1.0346832275390625, -8.736328125, 3.376373291015625, 0.861114501953125, -0.6248779296875, -0.041229248046875, 
192, -1.4810638427734375, -7.361663818359375, 4.2701416015625, 1.08648681640625, -0.47320556640625, -0.402252197265625, 
193, -0.625732421875, -6.2915496826171875, 5.80450439453125, 1.480621337890625, -0.372802734375, -0.282623291015625, 
194, -0.2491912841796875, -4.5142059326171875, 7.9926300048828125, 1.362060546875, -0.38134765625, -0.35845947265625, 
195, 0.4882965087890625, -3.4644012451171875, 9.549179077148438, 1.296905517578125, -0.27239990234375, -0.258056640625, 
196, -0.121856689453125, -2.4670562744140625, 10.085861206054688, 1.11639404296875, -0.252105712890625, -0.070068359375, 
197, 0.486785888671875, -1.3595123291015625, 10.613906860351562, 0.83013916015625, -0.2958984375, -0.101043701171875, 
198, 1.164642333984375, -0.2173004150390625, 10.306732177734375, 0.62933349609375, -0.2232666015625, -0.058319091796875, 
199, 1.5466461181640625, 0.3900909423828125, 10.105056762695312, 0.3494873046875, -0.059844970703125, 0.04742431640625, 
200, 1.723663330078125, 0.733642578125, 10.000198364257812, 0.2982177734375, -0.01605224609375, 0.1734619140625, 
201, 1.7696685791015625, 0.96929931640625, 10.404403686523438, -0.055328369140625, 0.06085205078125, 0.049560546875, 
202, 1.7091217041015625, 0.420318603515625, 11.368057250976562, -0.7998046875, 0.4005126953125, -0.073272705078125, 
203, 0.95166015625, -0.741668701171875, 10.408203125, -1.164031982421875, 0.515869140625, -0.05084228515625, 
204, 0.130828857421875, -1.855072021484375, 9.337936401367188, -1.373382568359375, 0.26165771484375, 0.046356201171875, 
205, -0.002349853515625, -3.7101287841796875, 8.897659301757812, -1.474853515625, 0.20611572265625, 0.251434326171875, 
206, -0.0145111083984375, -6.0979766845703125, 7.89691162109375, -1.721588134765625, 0.403717041015625, 0.330474853515625, 
207, -1.315826416015625, -7.1601409912109375, 5.6129608154296875, -1.971527099609375, 0.574615478515625, 0.33795166015625, 
208, -1.473846435546875, -6.7629241943359375, 3.6086273193359375, -1.72479248046875, 0.108917236328125, 0.334747314453125, 
209, -2.08331298828125, -8.12042236328125, 1.6743011474609375, -1.023040771484375, 0.534027099609375, -0.173675537109375, 
210, -1.9425811767578125, -9.211563110351562, 1.0609283447265625, -0.3341064453125, 0.31719970703125, 0.0623779296875, 
211, -2.2396392822265625, -9.453231811523438, 0.1894683837890625, -0.04571533203125, 0.243499755859375, -0.143768310546875, 
212, -0.9848480224609375, -9.156295776367188, 0.55364990234375, 0.10382080078125, -0.190155029296875, 0.02392578125, 
213, -1.6956939697265625, -8.903900146484375, 0.7339324951171875, 0.063232421875, -0.008575439453125, -0.015594482421875, 
214, -1.93829345703125, -9.090866088867188, 0.4911651611328125, 0.173248291015625, 0.01812744140625, -0.03802490234375, 
215, -1.9290313720703125, -8.807708740234375, 0.7894744873046875, 0.5673828125, -0.16131591796875, 0.04315185546875, 
216, -2.40618896484375, -9.0811767578125, 2.0230712890625, 0.833343505859375, -0.1292724609375, 0.26318359375, 
217, -1.1284332275390625, -8.880096435546875, 3.756072998046875, 0.769256591796875, -0.202972412109375, -0.1256103515625, 
218, -1.2046661376953125, -7.1295166015625, 4.3139190673828125, 1.1441650390625, -0.681488037109375, -0.402252197265625, 
219, -0.3586883544921875, -6.459228515625, 5.5983734130859375, 1.686767578125, -0.264923095703125, -0.41400146484375, 
220, 0.3068084716796875, -5.0292816162109375, 7.7775115966796875, 1.380218505859375, -0.465728759765625, -0.43109130859375, 
221, 0.069854736328125, -3.601898193359375, 8.695709228515625, 1.3748779296875, -0.2061767578125, -0.184356689453125, 
222, 0.7993316650390625, -2.4280853271484375, 9.549850463867188, 1.25738525390625, -0.2061767578125, 0.012176513671875, 
223, 0.550384521484375, -1.8734893798828125, 10.621871948242188, 1.01171875, -0.33221435546875, -0.088226318359375, 
224, 0.980377197265625, -0.8968353271484375, 10.666046142578125, 0.806640625, -0.215789794921875, 0.014312744140625, 
225, 1.682037353515625, 0.115753173828125, 9.956756591796875, 0.5118408203125, -0.179473876953125, -0.03375244140625, 
226, 1.5435791015625, 0.4588470458984375, 10.435714721679688, 0.282196044921875, -0.06732177734375, 0.04742431640625, 
227, 1.5626373291015625, 0.45965576171875, 10.872314453125, -0.00726318359375, 0.027740478515625, 0.04742431640625, 
228, 1.5193634033203125, 0.2124481201171875, 11.224838256835938, -0.4537353515625, 0.26165771484375, -0.0230712890625, 
229, 0.772064208984375, -0.24053955078125, 10.396575927734375, -0.8126220703125, 0.373809814453125, 0.014312744140625, 
230, 0.994415283203125, -0.818756103515625, 9.749267578125, -1.279388427734375, 0.373809814453125, 0.04742431640625, 
231, 0.39239501953125, -3.3662872314453125, 9.135238647460938, -1.37017822265625, 0.341766357421875, 0.189483642578125, 
232, 0.023895263671875, -6.244842529296875, 7.7129669189453125, -1.70556640625, 0.26593017578125, 0.268524169921875, 
233, -1.052093505859375, -7.2140960693359375, 4.5, -1.89569091796875, 0.396240234375, 0.33154296875, 
234, -1.447967529296875, -7.42535400390625, 2.7529144287109375, -1.638275146484375, 0.01812744140625, 0.403106689453125, 
235, -1.24993896484375, -8.628616333007812, 1.9595947265625, -1.052947998046875, 0.4774169921875, -0.156585693359375, 
236, -3.084625244140625, -9.311080932617188, 0.8617095947265625, -0.3511962890625, 0.59490966796875, 0.1905517578125, 
237, -1.4281768798828125, -9.198577880859375, 1.07391357421875, 0.230926513671875, -0.06304931640625, -0.145904541015625, 
238, -2.1322784423828125, -9.171112060546875, 0.6066436767578125, -0.0777587890625, 0.183685302734375, 0.007904052734375, 
239, -1.846282958984375, -9.257110595703125, 0.6788482666015625, 0.036529541015625, 0.126007080078125, -0.00811767578125, 
240, -1.814849853515625, -9.16314697265625, 0.6674652099609375, 0.207427978515625, -0.0010986328125, -0.0316162109375, 
241, -2.1182403564453125, -8.797164916992188, 0.705810546875, 0.497955322265625, -0.1463623046875, 0.0367431640625, 
242, -2.3282928466796875, -9.215286254882812, 1.699920654296875, 0.71051025390625, -0.1591796875, 0.22900390625, 
243, -1.2483978271484375, -9.013046264648438, 3.8636474609375, 1.06298828125, -0.405914306640625, -0.07647705078125, 
244, -0.57867431640625, -6.8823394775390625, 3.7920379638671875, 1.01385498046875, -0.92822265625, -0.541107177734375, 
245, -0.29107666015625, -6.4418792724609375, 5.35198974609375, 1.83203125, -0.184814453125, -0.284759521484375, 
246, -0.03558349609375, -5.3907470703125, 7.943328857421875, 1.6611328125, -0.287353515625, -0.37554931640625, 
247, 0.23455810546875, -3.8787384033203125, 9.265960693359375, 1.353515625, -0.35357666015625, -0.24951171875, 
248, 0.986358642578125, -2.050933837890625, 9.9041748046875, 1.190093994140625, -0.123931884765625, 0.1221923828125, 
249, 1.5089874267578125, -0.762115478515625, 10.833343505859375, 0.792755126953125, -0.28948974609375, -0.056182861328125, 
250, 1.186126708984375, 0.24359130859375, 10.079849243164062, 0.621856689453125, -0.162384033203125, 0.086944580078125, 
251, 1.18035888671875, 0.732391357421875, 10.371902465820312, 0.164703369140625, -0.066253662109375, -0.019866943359375, 
252, 1.7705535888671875, 1.002838134765625, 10.156234741210938, -0.044647216796875, 0.036285400390625, 0.01751708984375, 
253, 1.5507659912109375, 0.4717864990234375, 11.016738891601562, -0.66094970703125, 0.279815673828125, -0.0999755859375, 
254, 0.34619140625, -0.4835357666015625, 9.83868408203125, -1.157623291015625, 0.6995849609375, -0.03375244140625, 
255, 0.208953857421875, -1.553619384765625, 9.248764038085938, -1.379791259765625, 0.271270751953125, 0.00042724609375, 
256, -0.545166015625, -4.740020751953125, 8.953475952148438, -1.454559326171875, 0.096099853515625, 0.292022705078125, 
257, 0.0358123779296875, -6.6996612548828125, 7.24542236328125, -1.6243896484375, 0.4774169921875, 0.332611083984375, 
258, -1.512115478515625, -7.4247589111328125, 4.8387451171875, -1.8294677734375, 0.619476318359375, 0.298431396484375, 
259, -1.3835906982421875, -6.8853302001953125, 3.5888214111328125, -1.680999755859375, 0.134552001953125, 0.379608154296875, 
260, -0.91339111328125, -8.21270751953125, 2.0322265625, -0.8468017578125, 0.567138671875, 0.1392822265625, 
261, -3.0830230712890625, -9.190353393554688, 1.0904388427734375, -0.42596435546875, 0.512664794921875, -0.1597900390625, 
262, -2.0000762939453125, -9.187026977539062, 0.4934539794921875, -0.40887451171875, 0.420806884765625, 0.0196533203125, 
263, -1.1441650390625, -9.178985595703125, 0.8631591796875, 0.09527587890625, 0.01385498046875, -0.01666259765625, 
264, -1.7078094482421875, -9.213851928710938, 0.50799560546875, 0.09527587890625, -0.01177978515625, -0.070068359375, 
265, -1.96600341796875, -9.369796752929688, 0.804046630859375, 0.066436767578125, 0.225341796875, 0.005767822265625, 
266, -1.964385986328125, -9.091278076171875, 0.9212493896484375, 0.15509033203125, 0.010650634765625, -0.03375244140625, 
267, -2.58673095703125, -8.737594604492188, 1.51580810546875, 0.579132080078125, 0.00103759765625, 0.142486572265625, 
268, -2.52313232421875, -8.614501953125, 2.480804443359375, 1.260589599609375, -0.3001708984375, 0.281341552734375, 
269, -1.198822021484375, -7.8734283447265625, 3.7287750244140625, 1.294769287109375, -0.470001220703125, -0.1170654296875, 
270, -0.52337646484375, -6.0790863037109375, 6.4568023681640625, 1.589569091796875, -0.32794189453125, -0.417205810546875, 
271, -0.8917694091796875, -6.07470703125, 6.17474365234375, 1.5201416015625, -0.31085205078125, -0.275146484375, 
272, 0.289398193359375, -3.4905853271484375, 8.923538208007812, 1.440032958984375, -0.138885498046875, -0.172607421875, 
273, 1.1775360107421875, -2.66180419921875, 9.520156860351562, 1.100372314453125, -0.2916259765625, -0.051910400390625, 
274, 0.65850830078125, -2.1230926513671875, 10.434722900390625, 0.985015869140625, -0.25531005859375, -0.095703125, 
275, 1.068115234375, -0.766632080078125, 10.624038696289062, 0.54815673828125, -0.170928955078125, 0.041015625, 
276, 0.9510955810546875, -0.1309661865234375, 10.242691040039062, 0.256561279296875, -0.06732177734375, 0.07305908203125, 
277, 0.885528564453125, 0.3623809814453125, 9.846939086914062, 0.047210693359375, -0.031005859375, -0.05511474609375, 
278, 1.198150634765625, -0.0182037353515625, 10.497238159179688, -0.16961669921875, 0.03094482421875, -0.049774169921875, 
279, 1.077880859375, -0.36871337890625, 11.013671875, -0.63531494140625, 0.18048095703125, -0.090362548828125, 
280, 0.546661376953125, -1.3194732666015625, 10.083023071289062, -1.01983642578125, 0.158050537109375, 0.0751953125, 
281, 1.100860595703125, -1.6747589111328125, 9.493804931640625, -1.200347900390625, 0.196502685546875, -0.04443359375, 
282, 0.3260345458984375, -4.3885498046875, 8.871170043945312, -1.446014404296875, 0.10357666015625, 0.2802734375, 
283, 0.3895416259765625, -6.2846832275390625, 7.8015899658203125, -1.53466796875, 0.467803955078125, 0.4041748046875, 
284, -1.5449371337890625, -7.464996337890625, 5.0072174072265625, -1.8380126953125, 0.581024169921875, 0.326202392578125, 
285, -0.9472808837890625, -6.724700927734375, 3.454071044921875, -1.770721435546875, 0.09930419921875, 0.328338623046875, 
286, -1.3642120361328125, -8.20098876953125, 2.8536224365234375, -0.839324951171875, 0.704925537109375, 0.0623779296875, 
287, -2.7014617919921875, -8.534881591796875, 1.2936553955078125, -0.705810546875, 0.7081298828125, -0.138427734375, 
288, -1.0224761962890625, -9.081863403320312, 0.3754730224609375, 0.1016845703125, -0.3001708984375, -0.019866943359375, 
289, -1.2406768798828125, -9.26324462890625, 0.8976898193359375, -0.0179443359375, 0.153778076171875, -0.04443359375, 
290, -1.3855438232421875, -9.068023681640625, -0.0637359619140625, 0.0888671875, -0.10577392578125, -0.069000244140625, 
291, -1.6240692138671875, -9.194107055664062, 0.2279510498046875, 0.14654541015625, -0.126068115234375, -0.043365478515625, 
292, -1.834197998046875, -9.293212890625, 0.7926483154296875, 0.11236572265625, -0.132476806640625, -0.051910400390625, 
293, -1.7627105712890625, -9.050765991210938, 0.5816497802734375, 0.171112060546875, 0.034149169921875, 0.04315185546875, 
294, -2.0894317626953125, -8.600250244140625, 1.089630126953125, 0.544952392578125, -0.00750732421875, 0.12646484375, 
295, -1.559478759765625, -8.99072265625, 3.649322509765625, 0.866455078125, -0.873748779296875, 0.177734375, 
296, -1.6109771728515625, -7.4806671142578125, 4.3614501953125, 1.286224365234375, -0.22967529296875, -0.172607421875, 
297, -0.440155029296875, -7.4127197265625, 5.0181427001953125, 1.399444580078125, -0.27667236328125, -0.3648681640625, 
298, -0.7856292724609375, -6.259796142578125, 6.4628448486328125, 1.602386474609375, -0.269195556640625, -0.355255126953125, 
299, 0.218353271484375, -5.0732421875, 7.6743621826171875, 1.44964599609375, -0.290557861328125, -0.275146484375, 
300, 0.0395660400390625, -3.232757568359375, 8.427597045898438, 1.30438232421875, -0.23822021484375, 0.022857666015625, 
301, 0.380828857421875, -2.182769775390625, 9.564605712890625, 1.16552734375, -0.3172607421875, -0.064727783203125, 
302, 0.5417327880859375, -1.397613525390625, 10.5870361328125, 0.95831298828125, -0.262786865234375, -0.05511474609375, 
303, 0.3707275390625, -0.204742431640625, 10.804672241210938, 0.598358154296875, -0.237152099609375, -0.002777099609375, 
304, 1.296295166015625, 0.3980865478515625, 10.579421997070312, 0.23199462890625, -0.029937744140625, 0.015380859375, 
305, 1.4978790283203125, 0.3738861083984375, 11.180679321289062, -0.23370361328125, 0.04803466796875, -0.0401611328125, 
306, 1.725372314453125, -0.12957763671875, 11.122024536132812, -0.792327880859375, 0.252044677734375, 0.0111083984375, 
307, 0.58251953125, -1.212738037109375, 9.81695556640625, -1.21209716796875, 0.4005126953125, -0.064727783203125, 
308, 0.7688140869140625, -1.965118408203125, 9.50897216796875, -1.059356689453125, 0.7508544921875, 0.140350341796875, 
309, -0.18975830078125, -4.883544921875, 8.83154296875, -1.458831787109375, 0.185821533203125, 0.086944580078125, 
310, -0.860565185546875, -6.444793701171875, 7.1381683349609375, -1.59661865234375, 0.476348876953125, 0.264251708984375, 
311, -1.30462646484375, -7.193939208984375, 4.4577789306640625, -1.824127197265625, 0.258453369140625, 0.202301025390625, 
312, -1.787078857421875, -7.711578369140625, 3.3062591552734375, -1.59661865234375, 0.0843505859375, 0.357177734375, 
313, -1.267425537109375, -8.304916381835938, 1.7742156982421875, -1.0347900390625, 0.566070556640625, -0.034820556640625, 
314, -2.8482666015625, -8.95330810546875, 1.122589111328125, -0.517822265625, 0.091827392578125, -0.0999755859375, 
315, -1.75885009765625, -9.3011474609375, -0.424530029296875, -0.16748046875, 0.0458984375, -0.13629150390625, 
316, -2.04449462890625, -9.111099243164062, 0.52825927734375, 0.12945556640625, -0.044891357421875, -0.07647705078125, 
317, -1.5954437255859375, -9.27423095703125, 0.338531494140625, -0.140777587890625, 0.149505615234375, -0.109588623046875, 
318, -1.9473114013671875, -9.161300659179688, 0.0744171142578125, 0.085662841796875, 0.025604248046875, -0.028411865234375, 
319, -1.7293243408203125, -9.152877807617188, 0.2563018798828125, 0.0247802734375, 0.012786865234375, -0.0401611328125, 
320, -1.71343994140625, -9.197036743164062, 0.2313079833984375, 0.087799072265625, -0.004302978515625, -0.041229248046875, 
321, -1.52008056640625, -9.256820678710938, 0.5807647705078125, 0.22772216796875, 0.0758056640625, 0.02606201171875, 
322, -1.67437744140625, -9.031158447265625, 0.236419677734375, 0.44775390625, -0.1207275390625, 0.01324462890625, 
323, -2.364013671875, -7.8123626708984375, 2.9818878173828125, 1.79571533203125, -0.7957763671875, 0.386016845703125, 
324, -0.748779296875, -8.470977783203125, 3.9569549560546875, 1.600250244140625, -0.623809814453125, -0.46527099609375, 
325, -0.80877685546875, -5.720306396484375, 6.62310791015625, 1.6824951171875, -0.25103759765625, -0.42041015625, 
326, 0.2418212890625, -4.61187744140625, 8.13812255859375, 1.65899658203125, -0.108978271484375, -0.402252197265625, 
327, 0.8428192138671875, -2.8688812255859375, 10.048416137695312, 1.3406982421875, -0.2745361328125, -0.0316162109375, 
328, 1.4961090087890625, -2.0815887451171875, 10.23883056640625, 1.108917236328125, -0.271331787109375, -0.05084228515625, 
329, 0.985931396484375, -0.8349456787109375, 10.998138427734375, 0.86004638671875, -0.294830322265625, -0.026275634765625, 
330, 1.163543701171875, 0.0495758056640625, 10.222579956054688, 0.47552490234375, -0.10791015625, 0.0196533203125, 
331, 1.38397216796875, 0.7166748046875, 10.332687377929688, 0.2213134765625, 0.05657958984375, 0.0709228515625, 
332, 1.4068450927734375, 0.60113525390625, 11.005233764648438, -0.08416748046875, 0.1527099609375, 0.09869384765625, 
333, 1.54718017578125, 0.433074951171875, 10.681793212890625, -0.796600341796875, 0.40264892578125, -0.026275634765625, 
334, 1.1188201904296875, -0.965240478515625, 10.273208618164062, -1.252685546875, 0.362060546875, -0.060455322265625, 
335, 0.2586822509765625, -1.7655029296875, 9.85455322265625, -1.439605712890625, 0.23388671875, -0.060455322265625, 
336, -0.1381072998046875, -3.7136688232421875, 9.2255859375, -1.39154052734375, 0.3065185546875, 0.251434326171875, 
337, 0.1017608642578125, -5.480072021484375, 8.448944091796875, -1.687408447265625, 0.256317138671875, 0.33795166015625, 
338, -0.5654754638671875, -6.7511749267578125, 6.5818328857421875, -1.867919921875, 0.427215576171875, 0.296295166015625, 
339, -0.7281494140625, -6.8218841552734375, 4.0489349365234375, -1.81451416015625, 0.44964599609375, 0.257843017578125, 
340, -1.4748687744140625, -7.3119964599609375, 3.13232421875, -1.60089111328125, 0.108917236328125, 0.398834228515625, 
341, -1.4721832275390625, -8.246597290039062, 2.6103515625, -1.027313232421875, 0.689971923828125, 0.28240966796875, 
342, -1.6033935546875, -8.215438842773438, 2.2435302734375, -0.9237060546875, 0.64190673828125, -0.10211181640625, 
343, -1.64178466796875, -9.204910278320312, 0.3827362060546875, -0.215545654296875, 0.23602294921875, 0.136077880859375, 
344, -1.8674468994140625, -8.67462158203125, 0.55218505859375, -0.07135009765625, 0.049102783203125, -0.20037841796875, 
345, -1.187957763671875, -9.091812133789062, -0.040863037109375, 0.1956787109375, -0.190155029296875, 0.0281982421875, 
346, -2.1222686767578125, -9.324676513671875, 0.887542724609375, 0.036529541015625, -0.01177978515625, -0.04656982421875, 
347, -1.8519134521484375, -9.254959106445312, 0.4620819091796875, 0.070709228515625, -0.044891357421875, -0.041229248046875, 
348, -1.3944549560546875, -8.993911743164062, 0.7255096435546875, 0.329193115234375, 0.01171875, 0.0068359375, 
349, -3.14410400390625, -8.605926513671875, 1.4215850830078125, 0.92413330078125, -0.243560791015625, 0.2161865234375, 
350, -0.7346038818359375, -8.603759765625, 3.34600830078125, 0.664581298828125, -0.788299560546875, -0.21533203125, 
351, -1.353424072265625, -7.5610504150390625, 4.5707550048828125, 1.43682861328125, -0.363189697265625, -0.368072509765625, 
352, -0.7167510986328125, -6.2340850830078125, 6.27392578125, 1.685699462890625, -0.235015869140625, -0.265533447265625, 
353, -0.0354766845703125, -5.1751251220703125, 7.6658782958984375, 1.18902587890625, -0.395233154296875, -0.3563232421875, 
354, -0.0319671630859375, -2.9219512939453125, 8.9830322265625, 1.35137939453125, -0.217926025390625, -0.171539306640625, 
355, 0.5035552978515625, -1.93310546875, 9.511703491210938, 1.139892578125, -0.220062255859375, -0.0487060546875, 
356, 0.100433349609375, -1.4849090576171875, 10.469589233398438, 0.884613037109375, -0.28094482421875, -0.090362548828125, 
357, 0.7342987060546875, 0.0839385986328125, 10.705413818359375, 0.7254638671875, -0.19549560546875, 0.0538330078125, 
358, 1.109100341796875, 0.8953704833984375, 9.96734619140625, 0.3409423828125, -0.014984130859375, 0.010040283203125, 
359, 1.002288818359375, 0.552337646484375, 10.901123046875, 0.06964111328125, 0.049102783203125, 0.05169677734375, 
360, 1.17315673828125, 0.81536865234375, 11.157989501953125, -0.465484619140625, 0.2552490234375, 0.078399658203125, 
361, 1.44677734375, 0.4505462646484375, 10.027511596679688, -1.127716064453125, 0.501983642578125, -0.04656982421875, 
362, 0.2672882080078125, -1.7176666259765625, 9.785842895507812, -1.542144775390625, 0.177276611328125, -0.256988525390625, 
363, -0.29833984375, -3.8067626953125, 8.955902099609375, -1.48553466796875, 0.196502685546875, 0.17132568359375, 
364, -0.0692596435546875, -6.1688995361328125, 7.85137939453125, -1.680999755859375, 0.307586669921875, 0.375335693359375, 
365, -1.1202545166015625, -7.022308349609375, 5.333465576171875, -1.5816650390625, 0.62054443359375, 0.19482421875, 
366, -1.7783966064453125, -8.34088134765625, 3.665924072265625, -1.6201171875, 0.2381591796875, 0.396697998046875, 
367, -1.598876953125, -7.713287353515625, 2.042816162109375, -1.225982666015625, 0.88116455078125, -0.054046630859375, 
368, -2.1641845703125, -9.159622192382812, 1.2607879638671875, -0.347991943359375, 0.55859375, 0.02178955078125, 
369, -1.409423828125, -9.380584716796875, -0.302459716796875, -0.4451904296875, 0.32147216796875, -0.244171142578125, 
370, -2.3518829345703125, -9.375, 0.2129058837890625, -0.3341064453125, 0.5372314453125, -0.1085205078125, 
371, -1.14404296875, -9.68939208984375, 0.3279266357421875, -0.145050048828125, 0.516937255859375, 0.121124267578125, 
372, -2.8564910888671875, -9.376007080078125, -2.128448486328125, -0.929046630859375, 1.070220947265625, -0.477020263671875, 
373, -0.72479248046875, -7.60919189453125, -1.69439697265625, 1.05657958984375, -1.732513427734375, 0.225799560546875, 
374, -0.2364349365234375, -10.268997192382812, -2.3824310302734375, -0.691925048828125, 1.25286865234375, 0.012176513671875, 
375, -0.515777587890625, -8.404617309570312, 0.009429931640625, 0.628265380859375, -1.025421142578125, -0.265533447265625, 
376, -1.6831817626953125, -8.948150634765625, 1.599853515625, -0.841461181640625, 1.147125244140625, 0.063446044921875, 
377, -2.049346923828125, -12.137191772460938, -1.2519073486328125, 0.233062744140625, -2.721588134765625, 0.2589111328125, 
378, -1.711578369140625, -8.920806884765625, -0.575164794921875, 0.867523193359375, 0.5286865234375, 0.26959228515625, 
379, -3.436492919921875, -10.057449340820312, 1.7060394287109375, 0.113433837890625, 1.298797607421875, -1.2364501953125, 
380, 2.548919677734375, -10.318862915039062, 0.7348175048828125, 0.56951904296875, -0.1591796875, -2.0653076171875, 
381, 2.7038116455078125, -9.814239501953125, 1.367156982421875, -0.423828125, -0.625946044921875, -0.331756591796875, 
382, 2.43182373046875, -10.128555297851562, 0.2187957763671875, -0.830780029296875, -0.02886962890625, -0.0999755859375, 
383, 1.1559295654296875, -10.514129638671875, -0.127655029296875, 0.147613525390625, -0.82781982421875, -0.856201171875, 
384, 2.4528350830078125, -10.766799926757812, -1.2960968017578125, -0.027557373046875, -0.493499755859375, -1.3133544921875, 
385, 3.0473785400390625, -9.084915161132812, -0.4660186767578125, -1.084991455078125, -0.0523681640625, -0.812408447265625, 
386, 8.184326171875, -5.9457855224609375, 0.0947723388671875, 0.051483154296875, -1.15679931640625, -1.818572998046875, 
387, 9.3565673828125, -1.481414794921875, -4.09002685546875, 0.303558349609375, -1.110870361328125, -3.55853271484375, 
388, 8.114837646484375, -1.6516265869140625, -5.870391845703125, -0.335174560546875, -1.162139892578125, -3.42608642578125, 
389, 4.9925384521484375, 0.42852783203125, -5.7260284423828125, 0.493682861328125, -2.172576904296875, -1.92645263671875, 
390, 4.8666839599609375, 2.0624542236328125, -7.495941162109375, 0.30889892578125, -1.21875, -1.00360107421875, 
391, 3.7868194580078125, -0.230804443359375, -9.325897216796875, 0.4093017578125, 0.369537353515625, -0.464202880859375, 
392, 2.5390472412109375, 0.4289093017578125, -8.29595947265625, 0.6912841796875, -0.594970703125, 0.041015625, 
393, 0.935394287109375, -0.438323974609375, -13.5167236328125, -1.159759521484375, 0.1484375, 0.232208251953125, 
394, 1.2928466796875, 1.69000244140625, -11.585708618164062, -0.20806884765625, 0.11212158203125, -0.400115966796875, 
395, 2.913787841796875, 2.0540924072265625, -9.684005737304688, -0.63104248046875, 0.140960693359375, -0.348846435546875, 
396, 1.656402587890625, 2.4638671875, -9.46209716796875, -0.431304931640625, -0.36639404296875, -0.59771728515625, 
397, 2.4530487060546875, 1.326690673828125, -9.319732666015625, 2.206939697265625, 1.407745361328125, -0.62335205078125, 
398, 5.217254638671875, -1.17401123046875, -9.072891235351562, 4.3485107421875, 2.47479248046875, -0.49945068359375, 
399, 8.756500244140625, -5.02392578125, -3.69989013671875, 7.57635498046875, 5.31170654296875, 0.447967529296875, 
400, 2.1738128662109375, -2.9759063720703125, 5.7191314697265625, 7.08929443359375, 5.575531005859375, 1.654937744140625, 
401, -2.0075225830078125, 1.2418060302734375, 8.231155395507812, 0.463775634765625, 6.592376708984375, 2.5703125, 
402, -3.2626800537109375, -1.0227508544921875, 8.333724975585938, 1.28302001953125, 1.226165771484375, 1.77777099609375, 
403, -5.418212890625, 1.0979766845703125, 7.4791259765625, 0.064300537109375, 0.805328369140625, 1.01300048828125, 
404, -4.2422943115234375, 0.4074554443359375, 8.658920288085938, 0.132659912109375, 1.102264404296875, 0.784423828125, 
405, -4.467620849609375, 1.7663421630859375, 7.6026763916015625, -0.290313720703125, 0.1783447265625, 0.063446044921875, 
406, -4.7113037109375, 1.4817962646484375, 7.5378875732421875, -0.286041259765625, 0.474212646484375, 0.375335693359375, 
407, -8.648635864257812, 2.244537353515625, 4.3554534912109375, -1.621185302734375, -2.736541748046875, 0.67547607421875, 
408, -2.2741851806640625, -2.1819000244140625, 14.320541381835938, -0.283905029296875, 0.4774169921875, 0.34222412109375, 
409, -5.8002166748046875, 1.8149871826171875, 6.047271728515625, 0.82159423828125, -0.813934326171875, -1.036712646484375, 
410, -7.0722198486328125, 1.6147613525390625, 5.4596710205078125, -0.13543701171875, -0.019256591796875, 0.00042724609375, 
411, -8.167404174804688, -0.0229034423828125, 6.415679931640625, -0.424896240234375, 0.6824951171875, 0.9083251953125, 
412, -5.2164764404296875, 1.1080322265625, 5.9279327392578125, -0.961090087890625, -2.31036376953125, 1.578033447265625, 
413, -1.4755859375, 2.209747314453125, 6.5452880859375, -0.083099365234375, -0.254241943359375, 0.8741455078125, 
414, -1.7721710205078125, 2.2711944580078125, 10.777801513671875, 1.606658935546875, -2.94696044921875, -0.013458251953125, 
415, 0.0086212158203125, 1.9393768310546875, 9.969207763671875, 1.4560546875, -0.027801513671875, -0.158721923828125, 
416, -0.630615234375, 3.739349365234375, 7.678436279296875, 0.299285888671875, 0.440032958984375, 0.00897216796875, 
417, -2.6698150634765625, 4.5326080322265625, 8.697525024414062, 0.0888671875, -0.01177978515625, 0.1563720703125, 
418, -1.68414306640625, 4.0562591552734375, 8.6103515625, 0.109161376953125, 0.259521484375, 0.032470703125, 
419, -1.95513916015625, 3.9158782958984375, 10.423965454101562, 0.173248291015625, 0.1527099609375, 0.133941650390625, 
420, -1.5300445556640625, 3.91485595703125, 8.706130981445312, 0.111297607421875, -0.047027587890625, -0.073272705078125, 
421, -1.637237548828125, 4.3129425048828125, 8.61029052734375, -0.040374755859375, -0.05877685546875, -0.009185791015625, 
