#Measurement, Acceleration X, Acceleration Y, Acceleration Z, Rotation Alpha, Rotation Beta, Rotation Gamma,  
1, 2.7916717529296875, 7.785797119140625, 4.798095703125, -0.85748291015625, 0.002105712890625, 0.232208251953125, 
2, 3.4482269287109375, 6.9352264404296875, 6.0919647216796875, -0.87884521484375, -0.01177978515625, 0.4468994140625, 
3, 3.0833892822265625, 5.21441650390625, 6.510406494140625, -0.875640869140625, -0.070526123046875, 0.565460205078125, 
4, 4.6060028076171875, 5.2221221923828125, 8.49188232421875, -0.623565673828125, 0.057647705078125, 0.435150146484375, 
5, 4.3334808349609375, 5.707794189453125, 9.560806274414062, -0.174957275390625, 0.076873779296875, 0.32940673828125, 
6, 4.8754425048828125, 5.6160125732421875, 9.260406494140625, 0.2255859375, 0.008514404296875, -0.071136474609375, 
7, 4.5189056396484375, 5.475738525390625, 8.212905883789062, 0.56097412109375, -0.04168701171875, -0.2452392578125, 
8, 3.8544921875, 5.714935302734375, 6.8172760009765625, 0.7169189453125, -0.056640625, -0.353118896484375, 
9, 3.4902801513671875, 6.5582122802734375, 6.434173583984375, 0.764984130859375, -0.07373046875, -0.3819580078125, 
10, 3.0182037353515625, 7.593963623046875, 5.208160400390625, 0.750030517578125, -0.2147216796875, -0.528289794921875, 
11, 2.3944244384765625, 7.5283660888671875, 4.17559814453125, 0.73187255859375, -0.356781005859375, -0.521881103515625, 
12, 2.4101409912109375, 7.4998016357421875, 3.636871337890625, 0.468048095703125, 0.029876708984375, -0.370208740234375, 
13, 1.38262939453125, 8.956893920898438, 2.259063720703125, 0.156158447265625, -0.027801513671875, -0.04229736328125, 
14, 0.63116455078125, 8.555404663085938, 2.1158447265625, -0.2144775390625, 0.311859130859375, 0.210845947265625, 
15, 1.78302001953125, 8.203155517578125, 3.8189544677734375, -0.534912109375, 0.252044677734375, 0.146759033203125, 
16, 2.44580078125, 8.217742919921875, 4.26654052734375, -0.62890625, 0.138824462890625, 0.247161865234375, 
17, 1.867401123046875, 7.4524383544921875, 4.263702392578125, -0.84039306640625, -0.158111572265625, 0.1649169921875, 
18, 2.7994537353515625, 6.4127655029296875, 6.3174285888671875, -0.8809814453125, -0.194427490234375, 0.305908203125, 
19, 3.0675048828125, 6.760833740234375, 7.2530670166015625, -0.843597412109375, 0.01812744140625, 0.314453125, 
20, 3.465362548828125, 6.035369873046875, 7.89422607421875, -0.381103515625, -0.094024658203125, 0.59857177734375, 
21, 4.6197662353515625, 5.9908447265625, 8.960113525390625, -0.26788330078125, 0.066192626953125, 0.21832275390625, 
22, 5.1207427978515625, 5.98175048828125, 9.191055297851562, 0.09954833984375, -0.04168701171875, -0.004913330078125, 
23, 4.63250732421875, 6.0538787841796875, 8.47393798828125, 0.51611328125, 0.088623046875, -0.31787109375, 
24, 3.8800506591796875, 5.86944580078125, 6.944091796875, 0.68487548828125, 0.002105712890625, -0.43109130859375, 
25, 3.4464111328125, 6.3316192626953125, 6.1781768798828125, 0.781005859375, -0.027801513671875, -0.385162353515625, 
26, 3.0244598388671875, 7.339874267578125, 5.4836273193359375, 0.73614501953125, -0.044891357421875, -0.425750732421875, 
27, 2.2173614501953125, 7.46728515625, 4.2641754150390625, 0.80023193359375, -0.21685791015625, -0.391571044921875, 
28, 2.1033935546875, 7.95355224609375, 3.6848602294921875, 0.485137939453125, -0.489227294921875, -0.3221435546875, 
29, 2.2606658935546875, 8.467529296875, 2.953338623046875, 0.2469482421875, -0.18695068359375, -0.137359619140625, 
30, 2.0262298583984375, 8.8460693359375, 2.200592041015625, -0.157867431640625, 0.2723388671875, 0.042083740234375, 
31, 1.767486572265625, 8.709030151367188, 3.0536041259765625, -0.2999267578125, 0.258453369140625, 0.17987060546875, 
32, 1.706146240234375, 8.7076416015625, 3.8180084228515625, -0.373626708984375, 0.386627197265625, 0.1307373046875, 
33, 2.5760650634765625, 8.817092895507812, 4.4802093505859375, -0.683380126953125, 0.181549072265625, 0.33367919921875, 
34, 3.19976806640625, 7.3955078125, 5.033203125, -0.542388916015625, -0.07373046875, 0.2845458984375, 
35, 3.2274627685546875, 6.7323150634765625, 6.48297119140625, -0.75921630859375, -0.100433349609375, 0.1563720703125, 
36, 3.082000732421875, 6.0152587890625, 6.812042236328125, -0.78485107421875, 0.205047607421875, 0.093353271484375, 
37, 3.4431915283203125, 5.6159820556640625, 7.6796417236328125, -0.713287353515625, -0.05023193359375, 0.157440185546875, 
38, 3.155487060546875, 5.74273681640625, 7.8462371826171875, -0.514617919921875, -0.0352783203125, 0.277069091796875, 
39, 4.03631591796875, 4.87921142578125, 8.913986206054688, -0.18670654296875, -0.00537109375, 0.2119140625, 
40, 4.183868408203125, 5.4264984130859375, 9.5062255859375, -0.046783447265625, 0.0159912109375, -0.035888671875, 
41, 4.0413055419921875, 5.9430999755859375, 9.356216430664062, 0.431732177734375, -0.0780029296875, -0.0145263671875, 
42, 3.8670654296875, 5.75146484375, 8.214492797851562, 0.690216064453125, -0.082275390625, -0.1298828125, 
43, 3.438201904296875, 5.9366607666015625, 7.090972900390625, 0.931610107421875, -0.1549072265625, -0.09783935546875, 
44, 3.243865966796875, 6.99566650390625, 5.7853851318359375, 0.7852783203125, -0.125, -0.306121826171875, 
45, 2.8423004150390625, 7.339080810546875, 4.7732086181640625, 0.81304931640625, -0.275604248046875, -0.331756591796875, 
46, 2.412994384765625, 7.7635955810546875, 4.0435943603515625, 0.583404541015625, -0.2232666015625, -0.400115966796875, 
47, 0.9752349853515625, 8.961257934570312, 2.3446197509765625, 0.506500244140625, -0.28948974609375, -0.3306884765625, 
48, 1.173431396484375, 8.67669677734375, 2.50439453125, -0.0093994140625, -0.1378173828125, -0.08929443359375, 
49, 2.735443115234375, 8.7923583984375, 3.0212860107421875, -0.418487548828125, 0.138824462890625, 0.109375, 
50, 1.7498931884765625, 8.464614868164062, 3.2425079345703125, -0.66949462890625, 0.2894287109375, 0.187347412109375, 
51, 1.63287353515625, 7.9140472412109375, 4.757232666015625, -0.688720703125, -0.14208984375, 0.221527099609375, 
52, 2.03216552734375, 6.8592529296875, 5.8038177490234375, -0.820098876953125, 0.00103759765625, 0.22900390625, 
53, 3.420745849609375, 6.0027923583984375, 7.5372314453125, -0.64599609375, 0.061920166015625, 0.48321533203125, 
54, 3.065216064453125, 7.0572509765625, 6.96820068359375, -0.606475830078125, -0.013916015625, 0.330474853515625, 
55, 3.4005279541015625, 6.31842041015625, 8.025741577148438, -0.456939697265625, -0.064117431640625, 0.22900390625, 
56, 3.5400390625, 6.3216552734375, 8.624481201171875, -0.30633544921875, -0.017120361328125, 0.13287353515625, 
57, 4.2787628173828125, 5.68853759765625, 9.208786010742188, 0.121978759765625, -0.036346435546875, -0.030548095703125, 
58, 3.88330078125, 5.938934326171875, 7.8896942138671875, 0.579132080078125, -0.04595947265625, -0.109588623046875, 
59, 3.3314208984375, 6.3697052001953125, 7.1633453369140625, 0.690216064453125, -0.004302978515625, -0.2281494140625, 
60, 3.0086212158203125, 6.8789520263671875, 6.0357208251953125, 0.7767333984375, -0.08013916015625, -0.327484130859375, 
61, 2.7071533203125, 7.409332275390625, 5.1327972412109375, 0.833343505859375, -0.183746337890625, -0.412933349609375, 
62, 2.2400054931640625, 7.54412841796875, 3.9844512939453125, 0.754302978515625, -0.34930419921875, -0.395843505859375, 
63, 1.8922576904296875, 7.9448394775390625, 2.93048095703125, 0.66778564453125, -0.247833251953125, -0.3563232421875, 
64, 1.46832275390625, 8.865875244140625, 2.015472412109375, 0.24053955078125, -0.10577392578125, -0.17474365234375, 
65, 1.382293701171875, 9.330459594726562, 2.6412353515625, -0.095916748046875, 0.044830322265625, 0.0794677734375, 
66, 2.0067291259765625, 8.68841552734375, 2.926239013671875, -0.390716552734375, 0.461395263671875, 0.049560546875, 
67, 2.030426025390625, 8.966354370117188, 3.1787109375, -0.81048583984375, 0.39410400390625, 0.169189453125, 
68, 2.7289581298828125, 7.2985687255859375, 5.006103515625, -0.753875732421875, -0.034210205078125, 0.29736328125, 
69, 2.3067779541015625, 7.9300689697265625, 6.4156341552734375, -0.81475830078125, -0.051300048828125, 0.193756103515625, 
70, 3.0053253173828125, 6.8521728515625, 6.442291259765625, -0.685516357421875, 0.173004150390625, 0.232208251953125, 
71, 2.5446929931640625, 6.55841064453125, 7.2011566162109375, -0.5904541015625, 0.025604248046875, 0.287750244140625, 
72, 2.87249755859375, 5.756744384765625, 7.6723175048828125, -0.45587158203125, 0.083282470703125, 0.426605224609375, 
73, 2.644500732421875, 6.2430419921875, 7.3199310302734375, -0.51568603515625, 0.105712890625, 0.36572265625, 
74, 4.3997802734375, 6.587066650390625, 9.749191284179688, -0.200592041015625, -0.051300048828125, 0.018585205078125, 
75, 4.2491607666015625, 6.5468902587890625, 9.729446411132812, 0.3580322265625, -0.098297119140625, -0.094635009765625, 
76, 3.6466827392578125, 6.11944580078125, 8.108688354492188, 0.76605224609375, -0.14208984375, -0.26873779296875, 
77, 3.0771484375, 5.6626739501953125, 6.5546875, 0.81304931640625, -0.162384033203125, -0.20892333984375, 
78, 3.512420654296875, 6.33795166015625, 6.348907470703125, 0.8280029296875, -0.273468017578125, -0.172607421875, 
79, 3.3662872314453125, 7.41412353515625, 5.6982879638671875, 0.777801513671875, -0.08868408203125, -0.40972900390625, 
80, 2.5897369384765625, 7.6269073486328125, 4.8733978271484375, 0.824798583984375, -0.094024658203125, -0.487701416015625, 
81, 1.9923248291015625, 7.781005859375, 3.53521728515625, 0.80450439453125, -0.1890869140625, -0.52294921875, 
82, 2.2953643798828125, 8.477020263671875, 3.1228790283203125, 0.636810302734375, -0.134613037109375, -0.38623046875, 
83, 1.6862640380859375, 8.582778930664062, 2.45233154296875, 0.463775634765625, -0.00750732421875, -0.19183349609375, 
84, 1.4374542236328125, 9.158096313476562, 2.0408935546875, 0.175384521484375, 0.093963623046875, -0.1341552734375, 
85, 1.1807708740234375, 9.372344970703125, 1.4308319091796875, -0.1802978515625, 0.05657958984375, 0.08160400390625, 
86, 1.2820281982421875, 9.465225219726562, 2.1687469482421875, -0.34906005859375, 0.242431640625, 0.198028564453125, 
87, 1.38232421875, 8.40435791015625, 2.616302490234375, -0.508209228515625, 0.1270751953125, 0.1435546875, 
88, 1.1509857177734375, 7.8441162109375, 3.336883544921875, -0.62677001953125, 0.21466064453125, 0.220458984375, 
89, 1.9814453125, 7.8451385498046875, 5.0885009765625, -0.882049560546875, 0.06298828125, 0.17987060546875, 
90, 2.359344482421875, 7.79931640625, 6.24420166015625, -0.828643798828125, -0.04168701171875, -0.004913330078125, 
91, 2.6153411865234375, 6.74700927734375, 6.878570556640625, -0.7271728515625, -0.1121826171875, 0.264251708984375, 
92, 3.0904388427734375, 6.2808837890625, 7.8412017822265625, -0.456939697265625, -0.147430419921875, 0.48748779296875, 
93, 3.399993896484375, 6.283782958984375, 8.013580322265625, -0.256134033203125, -0.04595947265625, 0.288818359375, 
94, 3.502166748046875, 6.299041748046875, 8.673126220703125, -0.061737060546875, 0.02239990234375, -0.017730712890625, 
95, 3.8842315673828125, 6.3963165283203125, 8.671096801757812, 0.3323974609375, -0.03955078125, -0.086090087890625, 
96, 3.7329864501953125, 6.5109405517578125, 7.7559661865234375, 0.638946533203125, -0.01177978515625, -0.1939697265625, 
97, 3.1652679443359375, 6.55413818359375, 6.9998779296875, 0.788482666015625, 0.0245361328125, -0.32000732421875, 
98, 2.888153076171875, 6.7625732421875, 5.9239654541015625, 0.773529052734375, 0.002105712890625, -0.360595703125, 
99, 2.6613616943359375, 7.6042022705078125, 5.3092803955078125, 0.797027587890625, -0.1207275390625, -0.408660888671875, 
100, 2.279693603515625, 7.679046630859375, 4.474456787109375, 0.73187255859375, -0.226470947265625, -0.4033203125, 
101, 1.8376312255859375, 8.018661499023438, 3.8489837646484375, 0.55029296875, -0.431549072265625, -0.303985595703125, 
102, 2.4334259033203125, 8.46734619140625, 3.641082763671875, 0.519317626953125, -0.155975341796875, -0.24310302734375, 
103, 1.7984466552734375, 8.67626953125, 2.040374755859375, 0.403961181640625, -0.00537109375, -0.154449462890625, 
104, 2.0406494140625, 9.040618896484375, 2.7682342529296875, -0.085235595703125, 0.122802734375, -0.06793212890625, 
105, 1.204254150390625, 9.209259033203125, 1.7666473388671875, -0.036102294921875, 0.087554931640625, 0.05810546875, 
106, 2.190704345703125, 8.370941162109375, 2.2985687255859375, -0.36614990234375, 0.2381591796875, 0.089080810546875, 
107, 2.2790374755859375, 8.321823120117188, 2.686279296875, -0.7784423828125, 0.143096923828125, 0.25250244140625, 
108, 1.3653717041015625, 7.542938232421875, 4.51763916015625, -0.696197509765625, 0.126007080078125, 0.14569091796875, 
109, 2.06195068359375, 7.799346923828125, 5.3896484375, -0.617156982421875, -0.13568115234375, 0.169189453125, 
110, 2.281646728515625, 7.0630035400390625, 6.1939697265625, -0.627838134765625, -0.06304931640625, 0.236480712890625, 
111, 3.040863037109375, 6.9019012451171875, 5.5848236083984375, -0.64813232421875, 0.237091064453125, 0.259979248046875, 
112, 2.776214599609375, 5.557342529296875, 7.4160003662109375, -0.606475830078125, -0.068389892578125, 0.287750244140625, 
113, 3.25677490234375, 6.6745147705078125, 8.214431762695312, -0.456939697265625, -0.000030517578125, 0.163848876953125, 
114, 3.4547119140625, 6.2653350830078125, 9.347442626953125, -0.08416748046875, -0.01605224609375, 0.049560546875, 
115, 3.7762603759765625, 6.9576416015625, 9.304702758789062, 0.40289306640625, -0.057708740234375, -0.118133544921875, 
116, 3.217132568359375, 6.423828125, 7.7256317138671875, 0.784210205078125, -0.116455078125, -0.278350830078125, 
117, 2.827880859375, 6.9308013916015625, 6.4602813720703125, 0.89849853515625, -0.006439208984375, -0.32000732421875, 
118, 2.4031982421875, 7.5999755859375, 5.40509033203125, 1.00531005859375, -0.05023193359375, -0.355255126953125, 
119, 1.8805389404296875, 7.166107177734375, 3.6449432373046875, 0.880340576171875, -0.249969482421875, -0.3306884765625, 
120, 2.0048065185546875, 8.269577026367188, 3.17181396484375, 0.6827392578125, -0.164520263671875, -0.292236328125, 
121, 1.241424560546875, 8.853347778320312, 2.383819580078125, 0.356964111328125, 0.046966552734375, -0.235626220703125, 
122, 1.533416748046875, 9.00787353515625, 1.7949676513671875, -0.07989501953125, 0.100372314453125, 0.024993896484375, 
123, 1.505645751953125, 8.5140380859375, 1.8854217529296875, -0.493255615234375, 0.55218505859375, 0.19482421875, 
124, 1.16339111328125, 8.326614379882812, 2.996368408203125, -0.694061279296875, 0.326812744140625, 0.32940673828125, 
125, 2.355804443359375, 7.8684844970703125, 3.90435791015625, -0.914093017578125, 0.03521728515625, 0.180938720703125, 
126, 2.6853485107421875, 7.1643524169921875, 6.1916656494140625, -0.954681396484375, -0.089752197265625, 0.36358642578125, 
127, 2.7076568603515625, 7.188079833984375, 6.7604522705078125, -0.7955322265625, 0.021331787109375, 0.20123291015625, 
128, 3.8536224365234375, 6.05157470703125, 8.665557861328125, -0.586181640625, 0.037353515625, 0.202301025390625, 
129, 3.93646240234375, 8.79266357421875, 10.369094848632812, 0.004486083984375, -0.04168701171875, 0.016448974609375, 
130, 3.453826904296875, 7.5597076416015625, 8.483978271484375, 0.871795654296875, -0.1292724609375, -0.406524658203125, 
131, 2.4377899169921875, 6.83453369140625, 5.9212646484375, 1.205047607421875, -0.158111572265625, -0.52081298828125, 
132, 2.0984954833984375, 6.8074798583984375, 4.7551727294921875, 1.0672607421875, -0.51806640625, -0.35205078125, 
133, 1.57073974609375, 7.0181121826171875, 2.585906982421875, 0.82373046875, -0.36639404296875, -0.28155517578125, 
134, 1.157989501953125, 8.202804565429688, 2.1223602294921875, 0.07818603515625, -0.125, 0.07733154296875, 
135, 2.3134002685546875, 8.33447265625, 2.8403778076171875, -0.766693115234375, 0.5201416015625, 0.266387939453125, 
136, 1.70806884765625, 5.4600067138671875, 4.0477752685546875, -0.944000244140625, 0.3150634765625, 0.31658935546875, 
137, 1.6854248046875, 6.8733062744140625, 5.50347900390625, -1.213165283203125, 0.088623046875, 0.343292236328125, 
138, 2.7178497314453125, 6.3209075927734375, 7.111358642578125, -0.9578857421875, -0.22967529296875, 0.531280517578125, 
139, 5.318450927734375, 7.05560302734375, 9.378677368164062, -0.711151123046875, -0.051300048828125, 0.46612548828125, 
140, 5.0623016357421875, 7.46124267578125, 10.918792724609375, 0.374053955078125, -0.055572509765625, -0.2196044921875, 
141, 3.85723876953125, 6.41546630859375, 7.803253173828125, 1.1142578125, 0.02667236328125, -0.5784912109375, 
142, 2.7464752197265625, 6.4063262939453125, 5.7979583740234375, 1.407989501953125, -0.230743408203125, -0.526153564453125, 
143, 2.128570556640625, 6.087982177734375, 3.7570953369140625, 1.22320556640625, -0.38134765625, -0.526153564453125, 
144, 2.27484130859375, 8.203262329101562, 2.697235107421875, 0.44561767578125, -0.042755126953125, -0.205718994140625, 
145, 1.42755126953125, 7.6641845703125, 2.045440673828125, -0.560546875, 0.459259033203125, 0.238616943359375, 
146, 2.3902130126953125, 6.8467559814453125, 3.4026641845703125, -1.110626220703125, 0.38555908203125, 0.3272705078125, 
147, 1.5569305419921875, 7.6121063232421875, 3.6334991455078125, -1.025177001953125, 0.06939697265625, 0.362518310546875, 
148, 3.3684844970703125, 6.6625518798828125, 6.83074951171875, -0.8980712890625, -0.224334716796875, 0.54302978515625, 
149, 4.90179443359375, 8.173095703125, 9.083526611328125, -0.751739501953125, 0.02880859375, 0.174530029296875, 
150, 5.7267608642578125, 7.37689208984375, 10.806716918945312, 0.029052734375, -0.042755126953125, -0.20037841796875, 
151, 3.9384307861328125, 7.17071533203125, 7.8035736083984375, 1.087554931640625, -0.0609130859375, -0.494110107421875, 
152, 2.878814697265625, 6.564178466796875, 5.6141204833984375, 1.3065185546875, -0.121795654296875, -0.49090576171875, 
153, 2.4947509765625, 6.7261199951171875, 3.64117431640625, 1.042694091796875, -0.2147216796875, -0.556060791015625, 
154, 1.3160858154296875, 6.563934326171875, 3.036773681640625, 0.619720458984375, -0.173065185546875, -0.4588623046875, 
155, 1.69415283203125, 8.143524169921875, 2.646209716796875, 0.418914794921875, 0.04803466796875, -0.222808837890625, 
156, 1.508148193359375, 10.004180908203125, 1.3287506103515625, 0.188201904296875, 0.076873779296875, -0.060455322265625, 
157, 0.7186126708984375, 10.310958862304688, 0.6384124755859375, 0.17218017578125, 0.06085205078125, 0.1136474609375, 
158, 1.022064208984375, 10.745162963867188, 2.0773162841796875, -0.482574462890625, -0.253173828125, -0.087158203125, 
159, 1.981964111328125, 12.535629272460938, 3.1131744384765625, 0.0888671875, 0.418670654296875, 0.764129638671875, 
160, 2.2478790283203125, 3.839080810546875, 2.2324981689453125, -0.23583984375, -0.11859130859375, -0.410797119140625, 
161, 4.4478759765625, 10.105514526367188, 3.541900634765625, -0.685516357421875, -0.546905517578125, 0.5665283203125, 
162, 5.9709930419921875, 12.223892211914062, 2.211578369140625, 0.2725830078125, -0.568267822265625, 0.032470703125, 
163, 4.353912353515625, 10.521347045898438, 2.63580322265625, 0.485137939453125, -0.068389892578125, 0.24395751953125, 
164, 2.9394378662109375, 5.7223358154296875, 3.762603759765625, -0.21234130859375, 0.241363525390625, 0.8741455078125, 
165, 4.285919189453125, 6.5879669189453125, 1.5919952392578125, -0.67803955078125, 0.3492431640625, 0.956390380859375, 
166, 5.6894989013671875, 7.8115997314453125, 3.1577301025390625, 0.9775390625, -0.076934814453125, 0.140350341796875, 
167, 4.73834228515625, 5.8442840576171875, 3.0925140380859375, -0.333038330078125, -0.67828369140625, 0.17132568359375, 
168, 7.14984130859375, 8.726730346679688, 3.4473114013671875, -0.241180419921875, -1.39605712890625, -0.024139404296875, 
169, 0.8779144287109375, 6.1925201416015625, 4.7402801513671875, -0.96429443359375, 0.10784912109375, -0.205718994140625, 
170, 8.258071899414062, 10.463836669921875, 4.7678680419921875, 0.06964111328125, 1.45367431640625, 0.1563720703125, 
171, 3.9790191650390625, 6.1131744384765625, 6.620269775390625, -0.488983154296875, 3.247039794921875, 0.386016845703125, 
172, 3.935516357421875, 3.470794677734375, 5.7594757080078125, -0.8553466796875, 3.941314697265625, 0.32940673828125, 
173, 2.0872344970703125, 4.370025634765625, 9.442550659179688, -1.181121826171875, 2.38079833984375, 0.097625732421875, 
174, 1.015380859375, 3.863189697265625, 9.008514404296875, -0.8980712890625, 1.22723388671875, 0.13287353515625, 
175, -0.3248748779296875, 3.369537353515625, 9.143692016601562, -0.884185791015625, 0.31292724609375, 0.121124267578125, 
176, -0.2841796875, 2.2303009033203125, 9.385360717773438, -0.1375732421875, 0.600250244140625, 0.31231689453125, 
177, -1.061126708984375, 3.0174102783203125, 9.330459594726562, 0.0675048828125, 0.215728759765625, 0.04742431640625, 
178, -0.3707275390625, 2.913543701171875, 9.109344482421875, 0.575927734375, 0.510528564453125, -0.38409423828125, 
179, -0.929107666015625, 2.538543701171875, 9.362655639648438, 0.40716552734375, 0.256317138671875, -0.024139404296875, 
180, -1.20208740234375, 2.654296875, 9.508895874023438, 0.356964111328125, 0.106781005859375, -0.043365478515625, 
181, -1.768707275390625, 3.163970947265625, 9.582901000976562, -0.219818115234375, -0.05023193359375, -0.162994384765625, 
182, -1.060150146484375, 2.82806396484375, 9.186767578125, -0.40673828125, -0.1207275390625, -0.015594482421875, 
183, -1.4589691162109375, 2.7175445556640625, 9.172225952148438, -0.29779052734375, -0.14208984375, 0.039947509765625, 
