#Measurement, Acceleration X, Acceleration Y, Acceleration Z, Rotation Alpha, Rotation Beta, Rotation Gamma,  
1, 3.558807373046875, 3.225677490234375, 8.626785278320312, -1.061492919921875, -0.0438232421875, 0.647705078125, 
2, 5.9020233154296875, 0.67950439453125, 12.321243286132812, -0.313812255859375, -0.0780029296875, 0.442626953125, 
3, 4.8116912841796875, 1.15106201171875, 10.956924438476562, 0.883544921875, 0.068328857421875, -0.483428955078125, 
4, 3.659088134765625, 4.3966827392578125, 9.23388671875, 1.326812744140625, 0.145233154296875, -0.848724365234375, 
5, 1.5077056884765625, 4.8333892822265625, 6.4131011962890625, 1.36846923828125, 0.06512451171875, -0.47381591796875, 
6, 1.22802734375, 7.6590728759765625, 4.50689697265625, 1.087554931640625, -0.168792724609375, -0.2537841796875, 
7, 0.1092529296875, 8.3555908203125, 2.4312286376953125, 0.726531982421875, -0.085479736328125, -0.425750732421875, 
8, -0.0021209716796875, 9.5712890625, 1.94012451171875, -0.172821044921875, 0.149505615234375, 0.13714599609375, 
9, 1.3396148681640625, 8.431472778320312, 2.6385345458984375, -1.01556396484375, 0.098236083984375, 0.200164794921875, 
10, 0.1530303955078125, 6.8359222412109375, 4.794525146484375, -0.899139404296875, 0.05230712890625, 0.32086181640625, 
11, 0.4265289306640625, 7.08612060546875, 6.7065582275390625, -1.172576904296875, -0.21685791015625, 0.539825439453125, 
12, 2.193359375, 4.8323822021484375, 8.143539428710938, -1.138397216796875, -0.036346435546875, 0.644500732421875, 
13, 4.5118255615234375, 1.4067840576171875, 9.963516235351562, -0.873504638671875, -0.09722900390625, 0.693634033203125, 
14, 5.1319427490234375, 1.1913909912109375, 12.501983642578125, -0.27215576171875, -0.044891357421875, 0.296295166015625, 
15, 4.6003570556640625, 2.4715118408203125, 10.391693115234375, 1.18902587890625, -0.130340576171875, -0.810272216796875, 
16, 2.604461669921875, 5.0864715576171875, 6.6390838623046875, 1.5714111328125, 0.3065185546875, -0.7493896484375, 
17, 1.193145751953125, 6.7435760498046875, 3.89691162109375, 1.096099853515625, -0.277740478515625, -0.427886962890625, 
18, 0.678314208984375, 8.193191528320312, 2.1897735595703125, 0.220245361328125, -0.10577392578125, -0.115997314453125, 
19, 0.1919403076171875, 8.351409912109375, 2.857086181640625, -0.5135498046875, 0.24029541015625, 0.253570556640625, 
20, 0.555450439453125, 9.061737060546875, 6.07275390625, -0.9151611328125, -0.450775146484375, 0.4981689453125, 
21, 2.4304046630859375, 5.92486572265625, 6.6064453125, -1.13519287109375, -0.147430419921875, 0.623138427734375, 
22, 2.956024169921875, 3.275848388671875, 8.261001586914062, -1.063629150390625, 0.09716796875, 0.834625244140625, 
23, 5.7605438232421875, 0.8096160888671875, 12.640670776367188, 0.032257080078125, -0.04595947265625, -0.007049560546875, 
24, 4.1080322265625, 3.9718017578125, 9.373733520507812, 1.40264892578125, 0.059783935546875, -1.008941650390625, 
25, 1.9454345703125, 5.8505096435546875, 5.082000732421875, 1.747650146484375, -0.19976806640625, -0.4033203125, 
26, 1.08837890625, 7.389373779296875, 2.1174163818359375, 0.523590087890625, -0.0908203125, -0.58062744140625, 
27, -0.7117767333984375, 8.6019287109375, 1.2453460693359375, -0.435577392578125, 0.348175048828125, 0.3187255859375, 
28, 0.853424072265625, 8.016387939453125, 3.2736053466796875, -1.15869140625, 0.33856201171875, 0.082672119140625, 
29, 1.7793121337890625, 6.48345947265625, 5.9232940673828125, -1.3167724609375, -0.24249267578125, 0.6605224609375, 
30, 3.4252471923828125, 5.69439697265625, 8.030853271484375, -0.76348876953125, -0.04595947265625, 0.892303466796875, 
31, 3.21112060546875, 3.6461639404296875, 7.9575958251953125, -0.95574951171875, -0.019256591796875, 0.87628173828125, 
32, 6.2986602783203125, 3.306396484375, 13.059768676757812, 0.61651611328125, -0.183746337890625, -0.180084228515625, 
33, 4.9933319091796875, 4.7511138916015625, 8.438262939453125, 1.482757568359375, -0.128204345703125, -1.0313720703125, 
34, 1.8199005126953125, 6.3087310791015625, 3.7030487060546875, 1.3748779296875, -0.2061767578125, -0.88397216796875, 
35, -0.8466644287109375, 8.728912353515625, 0.7659149169921875, 0.41998291015625, -0.117523193359375, -0.282623291015625, 
36, -0.2190093994140625, 8.604110717773438, 1.0635833740234375, -0.6502685546875, 0.104644775390625, 0.129669189453125, 
37, 0.58990478515625, 7.6298980712890625, 4.3714447021484375, -1.527191162109375, -0.07159423828125, 0.413787841796875, 
38, 3.2091827392578125, 5.01629638671875, 7.708343505859375, -1.03692626953125, -0.149566650390625, 1.15185546875, 
39, 4.1597137451171875, 2.409423828125, 9.086456298828125, -1.0048828125, 0.234954833984375, 0.77374267578125, 
40, 6.0164337158203125, 0.18072509765625, 12.924758911132812, 0.130523681640625, -0.083343505859375, 0.012176513671875, 
41, 5.036163330078125, 3.656982421875, 9.461456298828125, 1.463531494140625, -0.321533203125, -1.013214111328125, 
42, 3.337066650390625, 4.8121795654296875, 6.2379150390625, 1.452850341796875, -0.04168701171875, -1.05059814453125, 
43, 0.934326171875, 7.3426055908203125, 3.04718017578125, 1.1441650390625, -0.202972412109375, -0.7579345703125, 
44, 0.2124786376953125, 9.374237060546875, 1.2944793701171875, -0.17388916015625, 0.091827392578125, 0.180938720703125, 
45, 0.19830322265625, 7.672637939453125, 2.811370849609375, -0.84039306640625, 0.516937255859375, 0.20977783203125, 
46, 1.595306396484375, 6.722869873046875, 5.2051849365234375, -1.317840576171875, -0.13140869140625, 0.467193603515625, 
47, 2.6784515380859375, 5.0714111328125, 7.9065704345703125, -1.294342041015625, 0.10357666015625, 0.855987548828125, 
48, 4.40081787109375, 0.76470947265625, 9.392593383789062, -1.17364501953125, 0.0458984375, 0.750244140625, 
49, 6.5457305908203125, -0.8601531982421875, 13.571624755859375, 0.177520751953125, -0.09722900390625, 0.146759033203125, 
50, 5.016357421875, 1.034027099609375, 8.936080932617188, 1.598114013671875, -0.303375244140625, -1.252471923828125, 
51, 3.978607177734375, 4.8265533447265625, 6.42681884765625, 1.293701171875, -0.036346435546875, -1.515228271484375, 
52, 1.117706298828125, 7.072357177734375, 3.370330810546875, 1.243499755859375, -0.341827392578125, -0.79852294921875, 
53, 0.624847412109375, 8.803298950195312, 2.57147216796875, -0.155731201171875, 0.027740478515625, 0.133941650390625, 
54, -0.6483612060546875, 7.87591552734375, 2.97906494140625, -0.969635009765625, 0.395172119140625, 0.037811279296875, 
55, 1.0599365234375, 8.270187377929688, 4.5421295166015625, -0.98779296875, -0.079071044921875, 0.60284423828125, 
56, 2.8083343505859375, 4.9284820556640625, 8.049072265625, -1.43426513671875, -0.133544921875, 0.407379150390625, 
57, 3.7200164794921875, 2.3911895751953125, 9.593048095703125, -0.88739013671875, -0.048095703125, 0.663726806640625, 
58, 4.5477294921875, 0.6272735595703125, 12.54571533203125, -0.1888427734375, 0.11212158203125, 0.36785888671875, 
59, 4.8701171875, 2.9213714599609375, 10.16558837890625, 1.527618408203125, -0.10791015625, -0.741912841796875, 
60, 2.5462493896484375, 5.32586669921875, 5.6764984130859375, 1.529754638671875, 0.029876708984375, -0.690643310546875, 
61, 1.1649322509765625, 8.177627563476562, 3.6480865478515625, 1.06512451171875, -0.472137451171875, -0.737640380859375, 
62, -0.2888336181640625, 9.703216552734375, 1.10150146484375, -0.147186279296875, 0.055511474609375, 0.0025634765625, 
63, 0.622711181640625, 7.583740234375, 2.8373870849609375, -0.93865966796875, 0.452850341796875, 0.296295166015625, 
64, 1.9019622802734375, 7.2821197509765625, 5.9243316650390625, -1.347747802734375, -0.29803466796875, 0.533416748046875, 
65, 3.074493408203125, 4.893341064453125, 8.905288696289062, -1.0091552734375, 0.164459228515625, 0.6776123046875, 
66, 3.7971649169921875, 2.056243896484375, 9.555038452148438, -0.7698974609375, 0.0159912109375, 0.66693115234375, 
67, 5.4677581787109375, 0.7404632568359375, 12.247711181640625, 0.507568359375, -0.160247802734375, -0.25592041015625, 
68, 4.5128173828125, 3.9035186767578125, 9.206893920898438, 1.3663330078125, -0.081207275390625, -0.84124755859375, 
69, 1.5992431640625, 6.0736541748046875, 5.213714599609375, 1.43896484375, 0.1356201171875, -0.83056640625, 
70, 0.99462890625, 6.7391815185546875, 2.7952423095703125, 1.03948974609375, -0.1207275390625, -0.671417236328125, 
71, 0.15850830078125, 9.57135009765625, 1.91387939453125, -0.262542724609375, 0.008514404296875, 0.1734619140625, 
72, 1.4112091064453125, 7.888763427734375, 2.9209136962890625, -0.82757568359375, 0.50518798828125, 0.4169921875, 
73, 1.4858551025390625, 6.4739227294921875, 5.49334716796875, -1.23345947265625, -0.218994140625, 0.25677490234375, 
74, 2.8500213623046875, 4.7106781005859375, 7.0618743896484375, -1.311431884765625, 0.01171875, 0.597503662109375, 
75, 4.336395263671875, 2.1275787353515625, 10.47607421875, -0.820098876953125, 0.17620849609375, 0.43194580078125, 
76, 5.2185211181640625, 1.6118927001953125, 12.881057739257812, 0.483001708984375, -0.07373046875, -0.167266845703125, 
77, 4.4915924072265625, 3.7618865966796875, 9.585617065429688, 1.487030029296875, 0.00531005859375, -0.876495361328125, 
78, 2.2080230712890625, 5.639404296875, 5.4039764404296875, 1.630157470703125, -0.064117431640625, -0.752593994140625, 
79, 0.637481689453125, 7.6159515380859375, 1.67724609375, 0.78955078125, -0.15277099609375, -0.46954345703125, 
80, 0.5974884033203125, 8.921157836914062, 1.3731842041015625, -0.452667236328125, -0.025665283203125, 0.22686767578125, 
81, 0.82366943359375, 7.226470947265625, 2.662872314453125, -0.97283935546875, 0.519073486328125, 0.32086181640625, 
82, 1.5942840576171875, 6.34234619140625, 6.6960906982421875, -1.319976806640625, -0.08441162109375, 0.510986328125, 
83, 2.4867401123046875, 5.3010406494140625, 8.44427490234375, -1.2142333984375, -0.0908203125, 0.63916015625, 
84, 4.200042724609375, 2.860870361328125, 9.342178344726562, -0.982452392578125, -0.0352783203125, 0.70538330078125, 
85, 5.346405029296875, 1.3059539794921875, 12.64404296875, -0.15252685546875, 0.0074462890625, 0.042083740234375, 
86, 4.8956146240234375, 3.070098876953125, 10.2344970703125, 1.461395263671875, -0.2745361328125, -0.553924560546875, 
87, 3.8629150390625, 5.3660736083984375, 7.216094970703125, 1.525482177734375, -0.10577392578125, -0.90533447265625, 
88, 2.7536163330078125, 5.945587158203125, 4.9782562255859375, 1.294769287109375, -0.194427490234375, -0.548583984375, 
89, 0.73175048828125, 7.84234619140625, 2.4102325439453125, 0.729736328125, 0.489166259765625, -0.363800048828125, 
90, -0.20306396484375, 9.706329345703125, 0.770477294921875, 0.218109130859375, 0.059783935546875, 0.00469970703125, 
91, 1.40618896484375, 10.567428588867188, 2.2621307373046875, 0.29180908203125, -0.053436279296875, -0.05084228515625, 
92, 1.6451263427734375, 13.054229736328125, 0.80548095703125, 0.715850830078125, 0.719879150390625, -0.184356689453125, 
93, 0.512481689453125, 9.556488037109375, 1.7545166015625, -0.671630859375, -0.1378173828125, 0.1563720703125, 
94, 1.2686920166015625, 11.5528564453125, 2.4233856201171875, 0.849365234375, -0.19976806640625, 0.955322265625, 
95, 3.1501617431640625, 6.080841064453125, 1.61968994140625, -1.987548828125, 1.608551025390625, 0.89764404296875, 
96, 0.08062744140625, 3.4207000732421875, 7.6966552734375, -1.6884765625, 2.09881591796875, 3.118255615234375, 
97, 2.41357421875, 3.2693634033203125, 8.620803833007812, -1.44281005859375, 2.12445068359375, 4.67449951171875, 
98, -1.1517333984375, 1.9812469482421875, 11.373794555664062, 0.7425537109375, 1.185577392578125, 3.7537841796875, 
99, -1.7877197265625, 5.0746002197265625, 8.310134887695312, 0.525726318359375, 1.550872802734375, 1.4210205078125, 
100, -1.9019012451171875, 4.4857330322265625, 8.15325927734375, 0.314239501953125, 0.595977783203125, 0.90618896484375, 
101, -1.4342803955078125, 3.784759521484375, 10.121627807617188, -0.066009521484375, -0.147430419921875, 0.254638671875, 
